participant,item,congruency,task,IA_LABEL,totread,fpass,spass,regpath,regin,reginc,regout,regoutc,skip,accuracy,rt,order,trial_trt
1_1,5_inc,incongruent,fact_check,Context,11802,3683,8119,11802,0,0,0,0,0,0,7874,1,17744
1_1,5_inc,incongruent,fact_check,Target,1534,1534,,1534,0,0,0,0,0,0,7874,1,17744
1_1,5_inc,incongruent,fact_check,Spillover,2106,1787,319,1787,1,1,0,0,0,0,7874,1,17744
1_1,5_inc,incongruent,fact_check,Coda,1762,198,1564,2081,0,0,1,1,0,0,7874,1,17744
1_1,3_inc,incongruent,fact_check,Context,18152,13114,685,13799,1,2,0,0,0,1,6410,1,23259
1_1,3_inc,incongruent,fact_check,Target,1966,183,1783,2485,0,0,1,1,0,1,6410,1,23259
1_1,3_inc,incongruent,fact_check,Spillover,1241,342,899,1241,0,0,0,0,0,1,6410,1,23259
1_1,3_inc,incongruent,fact_check,Coda,1090,1090,,4924,0,0,1,1,0,1,6410,1,23259
1_1,9_inc,incongruent,fact_check,Context,13136,10378,2758,10378,1,1,0,0,0,0,4284,1,16145
1_1,9_inc,incongruent,fact_check,Target,1268,1030,238,1030,0,0,0,0,0,0,4284,1,16145
1_1,9_inc,incongruent,fact_check,Spillover,1446,1019,427,1446,0,0,0,0,0,0,4284,1,16145
1_1,9_inc,incongruent,fact_check,Coda,189,189,,3185,0,0,1,1,0,0,4284,1,16145
1_1,4_cong,congruent,fact_check,Context,11027,10059,343,10059,1,3,0,0,1,1,4966,1,17339
1_1,4_cong,congruent,fact_check,Target,1442,80,179,11594,1,1,1,3,0,1,4966,1,17339
1_1,4_cong,congruent,fact_check,Spillover,1190,782,408,1657,1,1,1,1,0,1,4966,1,17339
1_1,4_cong,congruent,fact_check,Coda,3144,1230,1914,3552,0,0,1,1,0,1,4966,1,17339
1_1,7_inc,incongruent,fact_check,Context,9367,8900,140,8900,1,2,0,0,0,0,3993,1,14739
1_1,7_inc,incongruent,fact_check,Target,1681,1040,155,1774,1,2,1,2,0,0,3993,1,14739
1_1,7_inc,incongruent,fact_check,Spillover,1249,1026,223,1270,0,0,1,1,0,0,3993,1,14739
1_1,7_inc,incongruent,fact_check,Coda,988,343,307,1341,0,0,1,1,0,0,3993,1,14739
1_1,12_cong,congruent,fact_check,Context,7582,1693,3496,7062,1,2,0,0,0,1,4028,1,11612
1_1,12_cong,congruent,fact_check,Target,940,517,326,1169,1,1,1,1,0,1,4028,1,11612
1_1,12_cong,congruent,fact_check,Spillover,1376,1108,268,1473,0,0,1,1,0,1,4028,1,11612
1_1,12_cong,congruent,fact_check,Coda,1314,1314,,1508,0,0,1,1,0,1,4028,1,11612
1_1,11_inc,incongruent,fact_check,Context,6114,2031,2016,4047,1,3,0,0,0,0,5935,1,13074
1_1,11_inc,incongruent,fact_check,Target,1459,270,986,2035,0,0,1,1,0,0,5935,1,13074
1_1,11_inc,incongruent,fact_check,Spillover,1866,1471,196,1471,1,2,0,0,1,0,5935,1,13074
1_1,11_inc,incongruent,fact_check,Coda,2181,186,451,5538,0,0,1,2,0,0,5935,1,13074
1_1,1_inc,incongruent,fact_check,Context,6080,2872,595,3467,1,3,0,0,0,1,6042,1,15435
1_1,1_inc,incongruent,fact_check,Target,2891,105,1764,3545,1,2,1,1,0,1,6042,1,15435
1_1,1_inc,incongruent,fact_check,Spillover,1197,170,305,613,0,0,1,1,0,1,6042,1,15435
1_1,1_inc,incongruent,fact_check,Coda,2742,106,1645,5285,0,0,1,2,0,1,6042,1,15435
1_1,6_cong,congruent,fact_check,Context,9439,2789,2392,5181,1,4,0,0,0,1,2430,1,16493
1_1,6_cong,congruent,fact_check,Target,3237,124,174,6288,0,0,1,3,0,1,2430,1,16493
1_1,6_cong,congruent,fact_check,Spillover,2094,1118,368,1486,0,0,0,0,0,1,2430,1,16493
1_1,6_cong,congruent,fact_check,Coda,991,991,,2806,0,0,0,0,0,1,2430,1,16493
1_1,21_inc,incongruent,entertainment,Context,11743,2762,7571,10333,1,1,0,0,0,0,4158,2,16168
1_1,21_inc,incongruent,entertainment,Target,1076,1076,,1076,0,0,0,0,0,0,4158,2,16168
1_1,21_inc,incongruent,entertainment,Spillover,1975,1483,492,1975,0,0,0,0,0,0,4158,2,16168
1_1,21_inc,incongruent,entertainment,Coda,1080,1080,,2490,0,0,1,1,0,0,4158,2,16168
1_1,13_inc,incongruent,entertainment,Context,10374,5538,1967,9799,1,1,0,0,0,0,5605,2,15974
1_1,13_inc,incongruent,entertainment,Target,1645,103,1425,1528,1,1,0,0,0,0,5605,2,15974
1_1,13_inc,incongruent,entertainment,Spillover,1860,171,1689,1977,0,0,1,1,0,0,5605,2,15974
1_1,13_inc,incongruent,entertainment,Coda,1565,1565,,2140,0,0,1,1,0,0,5605,2,15974
1_1,19_inc,incongruent,entertainment,Context,22022,10398,2476,10398,1,6,0,0,0,0,3096,2,32516
1_1,19_inc,incongruent,entertainment,Target,6814,137,1662,137,1,2,0,0,0,0,3096,2,32516
1_1,19_inc,incongruent,entertainment,Spillover,2704,122,1996,6256,0,0,1,1,0,0,3096,2,32516
1_1,19_inc,incongruent,entertainment,Coda,976,815,161,15725,0,0,1,2,0,0,3096,2,32516
1_1,16_cong,congruent,entertainment,Context,10859,10733,126,10733,1,1,0,0,0,1,3218,2,15106
1_1,16_cong,congruent,entertainment,Target,1122,1122,,1122,0,0,0,0,0,1,3218,2,15106
1_1,16_cong,congruent,entertainment,Spillover,1603,1450,153,1450,1,1,0,0,0,1,3218,2,15106
1_1,16_cong,congruent,entertainment,Coda,1414,151,439,1693,0,0,1,2,0,1,3218,2,15106
1_1,15_inc,incongruent,entertainment,Context,8929,8109,820,8109,1,1,0,0,0,1,3946,2,15036
1_1,15_inc,incongruent,entertainment,Target,2950,1930,336,3086,1,1,1,1,0,1,3946,2,15036
1_1,15_inc,incongruent,entertainment,Spillover,996,996,,996,0,0,0,0,1,1,3946,2,15036
1_1,15_inc,incongruent,entertainment,Coda,2161,981,1180,3841,0,0,1,1,0,1,3946,2,15036
1_1,14_cong,congruent,entertainment,Context,12107,12107,,12107,0,0,0,0,0,1,4226,2,17635
1_1,14_cong,congruent,entertainment,Target,2433,2433,,2433,0,0,0,0,0,1,4226,2,17635
1_1,14_cong,congruent,entertainment,Spillover,1625,1625,,1625,0,0,0,0,0,1,4226,2,17635
1_1,14_cong,congruent,entertainment,Coda,1470,1470,,1470,0,0,0,0,0,1,4226,2,17635
1_1,20_cong,congruent,entertainment,Context,10628,3098,6265,9363,1,2,0,0,0,1,3390,2,15574
1_1,20_cong,congruent,entertainment,Target,2245,2245,,3108,0,0,1,1,0,1,3390,2,15574
1_1,20_cong,congruent,entertainment,Spillover,1216,969,247,1371,1,1,1,1,0,1,3390,2,15574
1_1,20_cong,congruent,entertainment,Coda,1366,95,1271,1613,0,0,1,1,0,1,3390,2,15574
1_1,23_inc,incongruent,entertainment,Context,8829,8829,,8829,0,0,0,0,0,0,2971,2,15242
1_1,23_inc,incongruent,entertainment,Target,2305,2305,,2305,0,0,0,0,0,0,2971,2,15242
1_1,23_inc,incongruent,entertainment,Spillover,2227,1731,496,1731,1,1,0,0,0,0,2971,2,15242
1_1,23_inc,incongruent,entertainment,Coda,1881,144,1737,2377,0,0,1,1,0,0,2971,2,15242
1_1,22_cong,congruent,entertainment,Context,10111,9724,387,9724,1,1,0,0,0,0,2246,2,14220
1_1,22_cong,congruent,entertainment,Target,1303,1303,,1303,0,0,0,0,1,0,2246,2,14220
1_1,22_cong,congruent,entertainment,Spillover,1784,83,1701,3474,0,0,1,1,0,0,2246,2,14220
1_1,22_cong,congruent,entertainment,Coda,1022,1022,,1022,0,0,0,0,0,0,2246,2,14220
1_1,17_inc,incongruent,entertainment,Context,18465,11715,1098,11715,1,6,0,0,0,1,2863,2,27389
1_1,17_inc,incongruent,entertainment,Target,4122,165,311,1263,1,5,1,1,0,1,2863,2,27389
1_1,17_inc,incongruent,entertainment,Spillover,3949,127,410,13558,0,0,1,6,0,1,2863,2,27389
1_1,17_inc,incongruent,entertainment,Coda,853,853,,853,0,0,0,0,0,1,2863,2,27389
1_1,18_cong,congruent,entertainment,Context,8984,4684,4300,8984,0,0,0,0,0,0,3290,2,12796
1_1,18_cong,congruent,entertainment,Target,1065,1065,,1065,0,0,0,0,0,0,3290,2,12796
1_1,18_cong,congruent,entertainment,Spillover,1209,1209,,1209,0,0,0,0,0,0,3290,2,12796
1_1,18_cong,congruent,entertainment,Coda,1412,1412,,1412,0,0,0,0,0,0,3290,2,12796
2_2,7_cong,congruent,entertainment,Context,15807,14153,661,14153,1,2,0,0,0,1,3863,1,21092
2_2,7_cong,congruent,entertainment,Target,1843,479,1364,2504,0,0,1,1,0,1,3863,1,21092
2_2,7_cong,congruent,entertainment,Spillover,1811,1811,,1811,0,0,0,0,0,1,3863,1,21092
2_2,7_cong,congruent,entertainment,Coda,1631,1631,,2624,0,0,1,1,0,1,3863,1,21092
2_2,3_cong,congruent,entertainment,Context,11893,11893,,11893,0,0,0,0,0,1,4703,1,15481
2_2,3_cong,congruent,entertainment,Target,1311,1311,,1311,0,0,0,0,0,1,4703,1,15481
2_2,3_cong,congruent,entertainment,Spillover,963,963,,963,0,0,0,0,0,1,4703,1,15481
2_2,3_cong,congruent,entertainment,Coda,1314,1314,,1314,0,0,0,0,0,1,4703,1,15481
2_2,9_cong,congruent,entertainment,Context,10325,10325,,10325,0,0,0,0,0,1,4336,1,14633
2_2,9_cong,congruent,entertainment,Target,2072,2072,,2072,0,0,0,0,0,1,4336,1,14633
2_2,9_cong,congruent,entertainment,Spillover,1310,1310,,1310,0,0,0,0,0,1,4336,1,14633
2_2,9_cong,congruent,entertainment,Coda,926,926,,926,0,0,0,0,0,1,4336,1,14633
2_2,5_cong,congruent,entertainment,Context,10822,10822,,10822,0,0,0,0,0,1,3746,1,15610
2_2,5_cong,congruent,entertainment,Target,1562,1562,,1562,0,0,0,0,0,1,3746,1,15610
2_2,5_cong,congruent,entertainment,Spillover,1839,1839,,1839,0,0,0,0,0,1,3746,1,15610
2_2,5_cong,congruent,entertainment,Coda,1387,1387,,1387,0,0,0,0,0,1,3746,1,15610
2_2,11_cong,congruent,entertainment,Context,11200,11200,,11200,0,0,0,0,0,1,4788,1,16465
2_2,11_cong,congruent,entertainment,Target,1138,1138,,1138,0,0,0,0,0,1,4788,1,16465
2_2,11_cong,congruent,entertainment,Spillover,2187,2187,,2187,0,0,0,0,0,1,4788,1,16465
2_2,11_cong,congruent,entertainment,Coda,1940,1940,,1940,0,0,0,0,0,1,4788,1,16465
2_2,4_inc,incongruent,entertainment,Context,14939,11017,91,11017,1,2,0,0,0,1,3619,1,21113
2_2,4_inc,incongruent,entertainment,Target,2488,1584,904,1584,0,0,0,0,0,1,3619,1,21113
2_2,4_inc,incongruent,entertainment,Spillover,1651,579,946,1616,1,1,1,1,0,1,3619,1,21113
2_2,4_inc,incongruent,entertainment,Coda,2035,1508,527,6896,0,0,1,2,0,1,3619,1,21113
2_2,12_inc,incongruent,entertainment,Context,13507,9896,130,9896,1,4,0,0,0,1,8853,1,21840
2_2,12_inc,incongruent,entertainment,Target,4110,1433,588,1433,1,2,0,0,0,1,8853,1,21840
2_2,12_inc,incongruent,entertainment,Spillover,2424,594,1528,2840,0,0,1,1,0,1,8853,1,21840
2_2,12_inc,incongruent,entertainment,Coda,1799,574,1225,7671,0,0,1,2,0,1,8853,1,21840
2_2,6_inc,incongruent,entertainment,Context,9767,9767,,9767,0,0,0,0,0,1,3305,1,15293
2_2,6_inc,incongruent,entertainment,Target,2109,2109,,2109,0,0,0,0,0,1,3305,1,15293
2_2,6_inc,incongruent,entertainment,Spillover,1819,1819,,1819,0,0,0,0,0,1,3305,1,15293
2_2,6_inc,incongruent,entertainment,Coda,1598,1598,,1598,0,0,0,0,0,1,3305,1,15293
2_2,1_cong,congruent,entertainment,Context,8852,8577,275,8577,1,1,0,0,0,1,3990,1,15988
2_2,1_cong,congruent,entertainment,Target,1979,1621,358,1621,1,1,0,0,0,1,3990,1,15988
2_2,1_cong,congruent,entertainment,Spillover,2882,1960,922,3240,0,0,1,1,0,1,3990,1,15988
2_2,1_cong,congruent,entertainment,Coda,2275,2275,,2550,0,0,1,1,0,1,3990,1,15988
2_2,16_inc,incongruent,fact_check,Context,9087,8985,102,8985,1,1,0,0,0,0,6594,2,14629
2_2,16_inc,incongruent,fact_check,Target,2547,2277,270,2277,1,1,0,0,0,0,6594,2,14629
2_2,16_inc,incongruent,fact_check,Spillover,1671,138,1533,1941,0,0,1,1,0,0,6594,2,14629
2_2,16_inc,incongruent,fact_check,Coda,1324,1324,,1426,0,0,1,1,0,0,6594,2,14629
2_2,14_inc,incongruent,fact_check,Context,20788,15409,691,15409,1,3,0,0,0,0,4554,2,32179
2_2,14_inc,incongruent,fact_check,Target,3412,731,1286,2708,1,1,1,1,0,0,4554,2,32179
2_2,14_inc,incongruent,fact_check,Spillover,3992,2238,320,2649,0,0,1,1,0,0,4554,2,32179
2_2,14_inc,incongruent,fact_check,Coda,3987,2679,1308,11413,0,0,1,2,0,0,4554,2,32179
2_2,20_inc,incongruent,fact_check,Context,8184,8184,,8184,0,0,0,0,0,1,5905,2,14383
2_2,20_inc,incongruent,fact_check,Target,1918,1918,,1918,0,0,0,0,0,1,5905,2,14383
2_2,20_inc,incongruent,fact_check,Spillover,2069,2069,,2069,0,0,0,0,0,1,5905,2,14383
2_2,20_inc,incongruent,fact_check,Coda,2212,2212,,2212,0,0,0,0,0,1,5905,2,14383
2_2,13_cong,congruent,fact_check,Context,8101,8101,,8101,0,0,0,0,0,1,3293,2,13738
2_2,13_cong,congruent,fact_check,Target,1898,1898,,1898,0,0,0,0,0,1,3293,2,13738
2_2,13_cong,congruent,fact_check,Spillover,1952,1952,,1952,0,0,0,0,0,1,3293,2,13738
2_2,13_cong,congruent,fact_check,Coda,1787,1787,,1787,0,0,0,0,0,1,3293,2,13738
2_2,17_cong,congruent,fact_check,Context,13370,13127,243,13127,1,1,0,0,0,1,2777,2,17539
2_2,17_cong,congruent,fact_check,Target,1574,174,1400,1817,0,0,1,1,0,1,2777,2,17539
2_2,17_cong,congruent,fact_check,Spillover,1734,1734,,1734,0,0,0,0,0,1,2777,2,17539
2_2,17_cong,congruent,fact_check,Coda,861,861,,861,0,0,0,0,0,1,2777,2,17539
2_2,23_cong,congruent,fact_check,Context,15490,15490,,15490,0,0,0,0,0,1,3033,2,20644
2_2,23_cong,congruent,fact_check,Target,1586,1586,,1586,0,0,0,0,0,1,3033,2,20644
2_2,23_cong,congruent,fact_check,Spillover,1763,1763,,1763,0,0,0,0,0,1,3033,2,20644
2_2,23_cong,congruent,fact_check,Coda,1805,1805,,1805,0,0,0,0,0,1,3033,2,20644
2_2,15_cong,congruent,fact_check,Context,11840,11840,,11840,0,0,0,0,0,1,3237,2,16615
2_2,15_cong,congruent,fact_check,Target,1452,1452,,1452,0,0,0,0,0,1,3237,2,16615
2_2,15_cong,congruent,fact_check,Spillover,1673,1484,189,1484,1,1,0,0,0,1,3237,2,16615
2_2,15_cong,congruent,fact_check,Coda,1650,113,1537,1839,0,0,1,1,0,1,3237,2,16615
2_2,21_cong,congruent,fact_check,Context,14116,11654,2462,11654,1,1,0,0,0,0,4788,2,18139
2_2,21_cong,congruent,fact_check,Target,1934,1934,,1934,0,0,0,0,0,0,4788,2,18139
2_2,21_cong,congruent,fact_check,Spillover,1060,1060,,1060,0,0,0,0,0,0,4788,2,18139
2_2,21_cong,congruent,fact_check,Coda,1029,1029,,3491,0,0,1,1,0,0,4788,2,18139
2_2,22_inc,incongruent,fact_check,Context,11598,11116,333,11116,1,2,0,0,0,1,3454,2,15187
2_2,22_inc,incongruent,fact_check,Target,920,99,821,1253,0,0,1,1,0,1,3454,2,15187
2_2,22_inc,incongruent,fact_check,Spillover,1434,595,839,1583,0,0,1,1,0,1,3454,2,15187
2_2,22_inc,incongruent,fact_check,Coda,1235,1235,,1235,0,0,0,0,0,1,3454,2,15187
2_2,19_cong,congruent,fact_check,Context,24561,18850,5711,18850,1,1,0,0,0,1,2437,2,30659
2_2,19_cong,congruent,fact_check,Target,2604,1839,765,1839,0,0,0,0,0,1,2437,2,30659
2_2,19_cong,congruent,fact_check,Spillover,2354,2354,,2354,0,0,0,0,0,1,2437,2,30659
2_2,19_cong,congruent,fact_check,Coda,1140,1140,,7616,0,0,1,1,0,1,2437,2,30659
2_2,18_inc,incongruent,fact_check,Context,13820,7539,784,7539,1,3,0,0,0,1,3412,2,20885
2_2,18_inc,incongruent,fact_check,Target,3013,2067,946,3797,0,0,1,1,0,1,3412,2,20885
2_2,18_inc,incongruent,fact_check,Spillover,1874,1695,179,1695,0,0,0,0,0,1,3412,2,20885
2_2,18_inc,incongruent,fact_check,Coda,2178,2178,,7854,0,0,1,1,0,1,3412,2,20885
3_1,5_inc,incongruent,fact_check,Context,24536,18918,5618,18918,1,1,0,0,0,1,12634,1,34359
3_1,5_inc,incongruent,fact_check,Target,3718,2830,702,2830,1,2,0,0,0,1,12634,1,34359
3_1,5_inc,incongruent,fact_check,Spillover,2407,785,686,785,1,1,0,0,1,1,12634,1,34359
3_1,5_inc,incongruent,fact_check,Coda,3698,1526,2172,12611,0,0,1,2,0,1,12634,1,34359
3_1,7_inc,incongruent,fact_check,Context,32319,21603,7932,21603,1,2,0,0,0,0,4562,1,44550
3_1,7_inc,incongruent,fact_check,Target,5163,3703,1460,3703,1,1,0,0,0,0,4562,1,44550
3_1,7_inc,incongruent,fact_check,Spillover,3056,2027,127,2027,0,0,0,0,0,0,4562,1,44550
3_1,7_inc,incongruent,fact_check,Coda,4012,3522,490,17217,0,0,1,1,0,0,4562,1,44550
3_1,3_inc,incongruent,fact_check,Context,30853,21886,8967,21886,1,1,0,0,0,1,3373,1,40957
3_1,3_inc,incongruent,fact_check,Target,3080,2164,916,2164,0,0,0,0,0,1,3373,1,40957
3_1,3_inc,incongruent,fact_check,Spillover,3511,1740,1771,1740,0,0,0,0,0,1,3373,1,40957
3_1,3_inc,incongruent,fact_check,Coda,3513,2516,997,15167,0,0,1,1,0,1,3373,1,40957
3_1,6_cong,congruent,fact_check,Context,19460,11678,4436,11678,1,4,0,0,0,1,3551,1,39302
3_1,6_cong,congruent,fact_check,Target,7343,467,4124,9027,1,4,1,1,0,1,3551,1,39302
3_1,6_cong,congruent,fact_check,Spillover,7215,3264,1433,4905,1,1,1,1,0,1,3551,1,39302
3_1,6_cong,congruent,fact_check,Coda,5284,403,672,13692,0,0,1,3,0,1,3551,1,39302
3_1,4_cong,congruent,fact_check,Context,28999,19582,9158,19582,1,2,0,0,0,1,2963,1,35785
3_1,4_cong,congruent,fact_check,Target,2041,1323,718,1323,0,0,0,0,0,1,2963,1,35785
3_1,4_cong,congruent,fact_check,Spillover,2069,1620,449,1620,0,0,0,0,0,1,2963,1,35785
3_1,4_cong,congruent,fact_check,Coda,2676,2676,,13260,0,0,1,1,0,1,2963,1,35785
3_1,11_inc,incongruent,fact_check,Context,17550,11232,107,11232,1,6,0,0,0,0,13173,1,27632
3_1,11_inc,incongruent,fact_check,Target,4121,539,770,5624,0,0,1,3,0,0,13173,1,27632
3_1,11_inc,incongruent,fact_check,Spillover,3412,386,431,2688,0,0,1,2,0,0,13173,1,27632
3_1,11_inc,incongruent,fact_check,Coda,2549,2549,,8088,0,0,1,1,0,0,13173,1,27632
3_1,9_inc,incongruent,fact_check,Context,19242,11751,893,11751,1,4,0,0,0,0,7481,1,27165
3_1,9_inc,incongruent,fact_check,Target,4444,1692,1089,1692,0,0,0,0,0,0,7481,1,27165
3_1,9_inc,incongruent,fact_check,Spillover,1977,215,1613,3810,0,0,1,1,0,0,7481,1,27165
3_1,9_inc,incongruent,fact_check,Coda,1502,1502,,9912,0,0,1,1,0,0,7481,1,27165
3_1,1_inc,incongruent,fact_check,Context,16089,11548,2979,11548,1,2,0,0,0,0,13512,1,24892
3_1,1_inc,incongruent,fact_check,Target,2913,2120,300,2120,1,1,0,0,0,0,13512,1,24892
3_1,1_inc,incongruent,fact_check,Spillover,4003,3634,369,3634,1,1,0,0,0,0,13512,1,24892
3_1,1_inc,incongruent,fact_check,Coda,1887,127,1760,7590,0,0,1,2,0,0,13512,1,24892
3_1,12_cong,congruent,fact_check,Context,12267,10780,1487,10780,1,1,0,0,0,1,3496,1,20221
3_1,12_cong,congruent,fact_check,Target,1750,1750,,1750,0,0,0,0,0,1,3496,1,20221
3_1,12_cong,congruent,fact_check,Spillover,3461,3233,228,3233,0,0,0,0,0,1,3496,1,20221
3_1,12_cong,congruent,fact_check,Coda,2743,2743,,4458,0,0,1,1,0,1,3496,1,20221
3_1,21_inc,incongruent,entertainment,Context,18920,14452,4468,14452,1,1,0,0,0,0,8265,2,28418
3_1,21_inc,incongruent,entertainment,Target,3568,2705,617,2705,1,1,0,0,0,0,8265,2,28418
3_1,21_inc,incongruent,entertainment,Spillover,3559,2768,791,2768,0,0,0,0,0,0,8265,2,28418
3_1,21_inc,incongruent,entertainment,Coda,2371,1774,597,8493,0,0,1,1,0,0,8265,2,28418
3_1,16_cong,congruent,entertainment,Context,21739,15470,6269,15470,1,1,0,0,0,1,3059,2,30274
3_1,16_cong,congruent,entertainment,Target,2922,2812,110,2812,0,0,0,0,0,1,3059,2,30274
3_1,16_cong,congruent,entertainment,Spillover,3694,3694,,3694,0,0,0,0,0,1,3059,2,30274
3_1,16_cong,congruent,entertainment,Coda,1919,1919,,8298,0,0,1,1,0,1,3059,2,30274
3_1,22_cong,congruent,entertainment,Context,15954,13213,2741,13213,1,1,0,0,0,0,4152,2,21972
3_1,22_cong,congruent,entertainment,Target,1293,1293,,1293,0,0,0,0,0,0,4152,2,21972
3_1,22_cong,congruent,entertainment,Spillover,1659,1659,,1659,0,0,0,0,0,0,4152,2,21972
3_1,22_cong,congruent,entertainment,Coda,2946,2403,275,5687,0,0,1,1,0,0,4152,2,21972
3_1,20_cong,congruent,entertainment,Context,17454,14791,2663,14791,1,1,0,0,0,1,3891,2,24411
3_1,20_cong,congruent,entertainment,Target,2121,2121,,2121,0,0,0,0,0,1,3891,2,24411
3_1,20_cong,congruent,entertainment,Spillover,2395,2395,,2395,0,0,0,0,0,1,3891,2,24411
3_1,20_cong,congruent,entertainment,Coda,2441,2150,291,5104,0,0,1,1,0,1,3891,2,24411
3_1,14_cong,congruent,entertainment,Context,12332,11264,1068,11264,1,1,0,0,0,1,3277,2,19576
3_1,14_cong,congruent,entertainment,Target,1910,1910,,1910,0,0,0,0,0,1,3277,2,19576
3_1,14_cong,congruent,entertainment,Spillover,2492,2492,,2492,0,0,0,0,0,1,3277,2,19576
3_1,14_cong,congruent,entertainment,Coda,2842,2842,,3910,0,0,1,1,0,1,3277,2,19576
3_1,19_inc,incongruent,entertainment,Context,23390,14764,1614,14764,1,5,0,0,0,1,8262,2,35025
3_1,19_inc,incongruent,entertainment,Target,6022,2294,263,6341,0,0,1,2,0,1,8262,2,35025
3_1,19_inc,incongruent,entertainment,Spillover,2319,2319,,2319,0,0,0,0,0,1,8262,2,35025
3_1,19_inc,incongruent,entertainment,Coda,3294,3294,,11601,0,0,1,1,0,1,8262,2,35025
3_1,13_inc,incongruent,entertainment,Context,25162,17434,948,17434,1,4,0,0,0,1,4335,2,29169
3_1,13_inc,incongruent,entertainment,Target,248,135,113,1584,0,0,1,2,0,1,4335,2,29169
3_1,13_inc,incongruent,entertainment,Spillover,1407,877,530,1553,0,0,1,1,0,1,4335,2,29169
3_1,13_inc,incongruent,entertainment,Coda,2352,2352,,8598,0,0,1,1,0,1,4335,2,29169
3_1,23_inc,incongruent,entertainment,Context,30762,26999,804,26999,1,2,0,0,0,0,3600,2,43382
3_1,23_inc,incongruent,entertainment,Target,6915,5074,455,5074,1,1,0,0,0,0,3600,2,43382
3_1,23_inc,incongruent,entertainment,Spillover,3418,3418,,3418,0,0,0,0,0,0,3600,2,43382
3_1,23_inc,incongruent,entertainment,Coda,2287,2287,,7891,0,0,1,1,0,0,3600,2,43382
3_1,17_inc,incongruent,entertainment,Context,31241,27339,1113,27339,1,3,0,0,0,1,4226,2,42222
3_1,17_inc,incongruent,entertainment,Target,5875,951,2696,6195,1,1,1,2,0,1,4226,2,42222
3_1,17_inc,incongruent,entertainment,Spillover,2697,2330,367,2330,0,0,0,0,0,1,4226,2,42222
3_1,17_inc,incongruent,entertainment,Coda,2409,2409,,6358,0,0,1,1,0,1,4226,2,42222
3_1,18_cong,congruent,entertainment,Context,31642,17053,108,17053,1,5,0,0,0,0,4492,2,42375
3_1,18_cong,congruent,entertainment,Target,6377,1779,2133,4020,0,0,1,1,0,0,4492,2,42375
3_1,18_cong,congruent,entertainment,Spillover,2080,529,1551,15849,0,0,1,1,0,0,4492,2,42375
3_1,18_cong,congruent,entertainment,Coda,2276,2276,,5453,0,0,1,1,0,0,4492,2,42375
3_1,15_inc,incongruent,entertainment,Context,22848,20439,515,20439,1,3,0,0,0,1,15792,2,34047
3_1,15_inc,incongruent,entertainment,Target,7996,3097,3345,9571,1,1,1,2,0,1,15792,2,34047
3_1,15_inc,incongruent,entertainment,Spillover,1453,1300,153,1300,1,1,0,0,0,1,15792,2,34047
3_1,15_inc,incongruent,entertainment,Coda,1750,1750,,2737,0,0,1,1,0,1,15792,2,34047
4_2,5_cong,congruent,entertainment,Context,8617,8617,,8617,0,0,0,0,0,1,4581,1,13559
4_2,5_cong,congruent,entertainment,Target,2084,2084,,2084,0,0,0,0,0,1,4581,1,13559
4_2,5_cong,congruent,entertainment,Spillover,1157,1157,,1157,0,0,0,0,0,1,4581,1,13559
4_2,5_cong,congruent,entertainment,Coda,1701,1701,,1701,0,0,0,0,0,1,4581,1,13559
4_2,11_cong,congruent,entertainment,Context,7632,7632,,7632,0,0,0,0,0,0,5141,1,12270
4_2,11_cong,congruent,entertainment,Target,1035,1035,,1035,0,0,0,0,0,0,5141,1,12270
4_2,11_cong,congruent,entertainment,Spillover,1530,1530,,1530,0,0,0,0,0,0,5141,1,12270
4_2,11_cong,congruent,entertainment,Coda,2073,2073,,2073,0,0,0,0,0,0,5141,1,12270
4_2,12_inc,incongruent,entertainment,Context,6385,6385,,6385,0,0,0,0,0,1,3892,1,10120
4_2,12_inc,incongruent,entertainment,Target,1028,1028,,1028,0,0,0,0,0,1,3892,1,10120
4_2,12_inc,incongruent,entertainment,Spillover,1404,1404,,1404,0,0,0,0,0,1,3892,1,10120
4_2,12_inc,incongruent,entertainment,Coda,1303,1303,,1303,0,0,0,0,0,1,3892,1,10120
4_2,7_cong,congruent,entertainment,Context,6704,6704,,6704,0,0,0,0,0,1,3317,1,10481
4_2,7_cong,congruent,entertainment,Target,1277,1277,,1277,0,0,0,0,0,1,3317,1,10481
4_2,7_cong,congruent,entertainment,Spillover,1079,1079,,1079,0,0,0,0,0,1,3317,1,10481
4_2,7_cong,congruent,entertainment,Coda,1421,1421,,1421,0,0,0,0,0,1,3317,1,10481
4_2,4_inc,incongruent,entertainment,Context,6707,6707,,6707,0,0,0,0,0,1,4708,1,11193
4_2,4_inc,incongruent,entertainment,Target,1899,1899,,1899,0,0,0,0,0,1,4708,1,11193
4_2,4_inc,incongruent,entertainment,Spillover,1102,377,725,1102,0,0,0,0,0,1,4708,1,11193
4_2,4_inc,incongruent,entertainment,Coda,1385,1385,,1385,0,0,0,0,0,1,4708,1,11193
4_2,1_cong,congruent,entertainment,Context,7607,7607,,7607,0,0,0,0,0,1,4296,1,12227
4_2,1_cong,congruent,entertainment,Target,1193,1193,,1193,0,0,0,0,0,1,4296,1,12227
4_2,1_cong,congruent,entertainment,Spillover,1726,1726,,1726,0,0,0,0,0,1,4296,1,12227
4_2,1_cong,congruent,entertainment,Coda,1701,1701,,1701,0,0,0,0,0,1,4296,1,12227
4_2,9_cong,congruent,entertainment,Context,7830,7830,,7830,0,0,0,0,0,1,7500,1,10548
4_2,9_cong,congruent,entertainment,Target,669,669,,669,0,0,0,0,0,1,7500,1,10548
4_2,9_cong,congruent,entertainment,Spillover,1001,1001,,1001,0,0,0,0,0,1,7500,1,10548
4_2,9_cong,congruent,entertainment,Coda,1048,1048,,1048,0,0,0,0,0,1,7500,1,10548
4_2,6_inc,incongruent,entertainment,Context,7124,7124,,7124,0,0,0,0,0,0,3336,1,11177
4_2,6_inc,incongruent,entertainment,Target,1266,1266,,1266,0,0,0,0,0,0,3336,1,11177
4_2,6_inc,incongruent,entertainment,Spillover,1622,1622,,1622,0,0,0,0,0,0,3336,1,11177
4_2,6_inc,incongruent,entertainment,Coda,1165,1165,,1165,0,0,0,0,0,0,3336,1,11177
4_2,3_cong,congruent,entertainment,Context,7604,7604,,7604,0,0,0,0,0,0,4350,1,10636
4_2,3_cong,congruent,entertainment,Target,807,807,,807,0,0,0,0,0,0,4350,1,10636
4_2,3_cong,congruent,entertainment,Spillover,1027,1027,,1027,0,0,0,0,0,0,4350,1,10636
4_2,3_cong,congruent,entertainment,Coda,1198,1198,,1198,0,0,0,0,0,0,4350,1,10636
4_2,13_cong,congruent,fact_check,Context,9590,6787,2803,6787,1,1,0,0,0,1,3644,2,14095
4_2,13_cong,congruent,fact_check,Target,1243,1243,,1243,0,0,0,0,0,1,3644,2,14095
4_2,13_cong,congruent,fact_check,Spillover,1870,1734,136,1734,1,1,0,0,0,1,3644,2,14095
4_2,13_cong,congruent,fact_check,Coda,1392,1392,,4331,0,0,1,1,0,1,3644,2,14095
4_2,17_cong,congruent,fact_check,Context,7456,7456,,7456,0,0,0,0,0,1,3229,2,11353
4_2,17_cong,congruent,fact_check,Target,1235,1235,,1235,0,0,0,0,0,1,3229,2,11353
4_2,17_cong,congruent,fact_check,Spillover,1368,1368,,1368,0,0,0,0,0,1,3229,2,11353
4_2,17_cong,congruent,fact_check,Coda,1294,1294,,1294,0,0,0,0,0,1,3229,2,11353
4_2,16_inc,incongruent,fact_check,Context,5970,5970,,5970,0,0,0,0,0,1,3264,2,9501
4_2,16_inc,incongruent,fact_check,Target,1212,1212,,1212,0,0,0,0,0,1,3264,2,9501
4_2,16_inc,incongruent,fact_check,Spillover,1027,1027,,1027,0,0,0,0,0,1,3264,2,9501
4_2,16_inc,incongruent,fact_check,Coda,1292,1292,,1292,0,0,0,0,0,1,3264,2,9501
4_2,22_inc,incongruent,fact_check,Context,6935,6935,,6935,0,0,0,0,0,1,2455,2,9633
4_2,22_inc,incongruent,fact_check,Target,617,617,,617,0,0,0,0,0,1,2455,2,9633
4_2,22_inc,incongruent,fact_check,Spillover,1402,1402,,1402,0,0,0,0,0,1,2455,2,9633
4_2,22_inc,incongruent,fact_check,Coda,679,679,,679,0,0,0,0,0,1,2455,2,9633
4_2,15_cong,congruent,fact_check,Context,6600,6600,,6600,0,0,0,0,0,1,3285,2,9317
4_2,15_cong,congruent,fact_check,Target,982,982,,982,0,0,0,0,0,1,3285,2,9317
4_2,15_cong,congruent,fact_check,Spillover,790,663,127,663,1,1,0,0,0,1,3285,2,9317
4_2,15_cong,congruent,fact_check,Coda,945,110,835,1072,0,0,1,1,0,1,3285,2,9317
4_2,14_inc,incongruent,fact_check,Context,6826,6826,,6826,0,0,0,0,0,1,2194,2,10716
4_2,14_inc,incongruent,fact_check,Target,1230,1230,,1230,0,0,0,0,0,1,2194,2,10716
4_2,14_inc,incongruent,fact_check,Spillover,1309,1309,,1309,0,0,0,0,0,1,2194,2,10716
4_2,14_inc,incongruent,fact_check,Coda,1351,1351,,1351,0,0,0,0,0,1,2194,2,10716
4_2,23_cong,congruent,fact_check,Context,7374,7374,,7374,0,0,0,0,0,1,2577,2,10386
4_2,23_cong,congruent,fact_check,Target,1442,1442,,1442,0,0,0,0,0,1,2577,2,10386
4_2,23_cong,congruent,fact_check,Spillover,887,887,,887,0,0,0,0,0,1,2577,2,10386
4_2,23_cong,congruent,fact_check,Coda,683,683,,683,0,0,0,0,0,1,2577,2,10386
4_2,21_cong,congruent,fact_check,Context,6858,6858,,6858,0,0,0,0,0,1,2064,2,9537
4_2,21_cong,congruent,fact_check,Target,1222,1222,,1222,0,0,0,0,0,1,2064,2,9537
4_2,21_cong,congruent,fact_check,Spillover,852,852,,852,0,0,0,0,0,1,2064,2,9537
4_2,21_cong,congruent,fact_check,Coda,605,605,,605,0,0,0,0,0,1,2064,2,9537
4_2,19_cong,congruent,fact_check,Context,7164,7164,,7164,0,0,0,0,0,1,2088,2,8702
4_2,19_cong,congruent,fact_check,Target,1538,1538,,1538,0,0,0,0,0,1,2088,2,8702
4_2,19_cong,congruent,fact_check,Spillover,0,.,,.,.,.,.,.,1,1,2088,2,8702
4_2,19_cong,congruent,fact_check,Coda,0,.,,.,.,.,.,.,1,1,2088,2,8702
4_2,18_inc,incongruent,fact_check,Context,5686,5686,,5686,0,0,0,0,0,1,3003,2,9742
4_2,18_inc,incongruent,fact_check,Target,1800,1800,,1800,0,0,0,0,0,1,3003,2,9742
4_2,18_inc,incongruent,fact_check,Spillover,1496,1496,,1496,0,0,0,0,0,1,3003,2,9742
4_2,18_inc,incongruent,fact_check,Coda,760,760,,760,0,0,0,0,0,1,3003,2,9742
4_2,20_inc,incongruent,fact_check,Context,6740,5777,963,5777,1,1,0,0,0,1,2315,2,8624
4_2,20_inc,incongruent,fact_check,Target,1668,943,725,2631,0,0,1,1,0,1,2315,2,8624
4_2,20_inc,incongruent,fact_check,Spillover,216,216,,216,0,0,0,0,0,1,2315,2,8624
4_2,20_inc,incongruent,fact_check,Coda,0,.,,.,.,.,.,.,1,1,2315,2,8624
5_1,7_inc,incongruent,fact_check,Context,12101,10708,1393,10708,1,1,0,0,0,0,7066,1,17575
5_1,7_inc,incongruent,fact_check,Target,1450,1450,,1450,0,0,0,0,0,0,7066,1,17575
5_1,7_inc,incongruent,fact_check,Spillover,2058,2058,,2058,0,0,0,0,0,0,7066,1,17575
5_1,7_inc,incongruent,fact_check,Coda,1966,1966,,3359,0,0,1,1,0,0,7066,1,17575
5_1,4_cong,congruent,fact_check,Context,12510,12510,,12510,0,0,0,0,0,1,4120,1,17774
5_1,4_cong,congruent,fact_check,Target,1361,1361,,1361,0,0,0,0,0,1,4120,1,17774
5_1,4_cong,congruent,fact_check,Spillover,1663,1663,,1663,0,0,0,0,0,1,4120,1,17774
5_1,4_cong,congruent,fact_check,Coda,2240,2240,,2240,0,0,0,0,0,1,4120,1,17774
5_1,11_inc,incongruent,fact_check,Context,14083,12583,806,12583,1,2,0,0,0,1,7229,1,19836
5_1,11_inc,incongruent,fact_check,Target,1764,1628,136,1628,1,1,0,0,0,1,7229,1,19836
5_1,11_inc,incongruent,fact_check,Spillover,1881,147,1734,2687,0,0,1,1,0,1,7229,1,19836
5_1,11_inc,incongruent,fact_check,Coda,2108,2108,,2938,0,0,1,1,0,1,7229,1,19836
5_1,3_inc,incongruent,fact_check,Context,10207,9314,893,9314,1,1,0,0,0,1,2774,1,21322
5_1,3_inc,incongruent,fact_check,Target,4735,1850,1972,1850,1,2,0,0,0,1,2774,1,21322
5_1,3_inc,incongruent,fact_check,Spillover,4327,1941,669,8105,0,0,1,2,0,1,2774,1,21322
5_1,3_inc,incongruent,fact_check,Coda,2053,2053,,2053,0,0,0,0,0,1,2774,1,21322
5_1,12_cong,congruent,fact_check,Context,7953,7953,,7953,0,0,0,0,0,1,2250,1,12295
5_1,12_cong,congruent,fact_check,Target,1245,1245,,1245,0,0,0,0,0,1,2250,1,12295
5_1,12_cong,congruent,fact_check,Spillover,1582,1582,,1582,0,0,0,0,0,1,2250,1,12295
5_1,12_cong,congruent,fact_check,Coda,1515,1515,,1515,0,0,0,0,0,1,2250,1,12295
5_1,9_inc,incongruent,fact_check,Context,17277,16474,803,16474,1,1,0,0,0,1,2715,1,22820
5_1,9_inc,incongruent,fact_check,Target,2196,1814,382,1814,0,0,0,0,0,1,2715,1,22820
5_1,9_inc,incongruent,fact_check,Spillover,1396,105,1291,2581,0,0,1,1,0,1,2715,1,22820
5_1,9_inc,incongruent,fact_check,Coda,1951,1951,,1951,0,0,0,0,0,1,2715,1,22820
5_1,6_cong,congruent,fact_check,Context,11730,11730,,11730,0,0,0,0,0,1,2349,1,16534
5_1,6_cong,congruent,fact_check,Target,1939,1939,,1939,0,0,0,0,0,1,2349,1,16534
5_1,6_cong,congruent,fact_check,Spillover,1637,1637,,1637,0,0,0,0,0,1,2349,1,16534
5_1,6_cong,congruent,fact_check,Coda,1228,1228,,1228,0,0,0,0,0,1,2349,1,16534
5_1,5_inc,incongruent,fact_check,Context,11664,11664,,11664,0,0,0,0,0,0,3644,1,17063
5_1,5_inc,incongruent,fact_check,Target,2456,2456,,2456,0,0,0,0,0,0,3644,1,17063
5_1,5_inc,incongruent,fact_check,Spillover,1661,1661,,1661,0,0,0,0,0,0,3644,1,17063
5_1,5_inc,incongruent,fact_check,Coda,1282,1282,,1282,0,0,0,0,0,0,3644,1,17063
5_1,1_inc,incongruent,fact_check,Context,9024,8031,993,8031,1,1,0,0,0,0,4021,1,13606
5_1,1_inc,incongruent,fact_check,Target,1318,1318,,1318,0,0,0,0,0,0,4021,1,13606
5_1,1_inc,incongruent,fact_check,Spillover,1695,479,1216,2688,0,0,1,1,0,0,4021,1,13606
5_1,1_inc,incongruent,fact_check,Coda,1569,1569,,1569,0,0,0,0,0,0,4021,1,13606
5_1,21_inc,incongruent,entertainment,Context,13123,11212,533,11212,1,3,0,0,0,1,6913,2,19615
5_1,21_inc,incongruent,entertainment,Target,2710,1560,471,2093,1,1,1,1,0,1,6913,2,19615
5_1,21_inc,incongruent,entertainment,Spillover,1757,1757,,1757,0,0,0,0,0,1,6913,2,19615
5_1,21_inc,incongruent,entertainment,Coda,2025,306,1719,4553,0,0,1,1,0,1,6913,2,19615
5_1,17_inc,incongruent,entertainment,Context,9436,9436,,9436,0,0,0,0,0,1,2186,2,13042
5_1,17_inc,incongruent,entertainment,Target,751,751,,751,0,0,0,0,0,1,2186,2,13042
5_1,17_inc,incongruent,entertainment,Spillover,2017,2017,,2017,0,0,0,0,0,1,2186,2,13042
5_1,17_inc,incongruent,entertainment,Coda,838,838,,838,0,0,0,0,0,1,2186,2,13042
5_1,16_cong,congruent,entertainment,Context,7605,7284,321,7284,1,1,0,0,0,1,2038,2,13928
5_1,16_cong,congruent,entertainment,Target,3906,2043,220,2043,1,2,0,0,0,1,2038,2,13928
5_1,16_cong,congruent,entertainment,Spillover,1757,141,1616,3941,0,0,1,2,0,1,2038,2,13928
5_1,16_cong,congruent,entertainment,Coda,660,660,,660,0,0,0,0,0,1,2038,2,13928
5_1,22_cong,congruent,entertainment,Context,9723,9723,,9723,0,0,0,0,0,0,1895,2,13660
5_1,22_cong,congruent,entertainment,Target,1223,1223,,1223,0,0,0,0,0,0,1895,2,13660
5_1,22_cong,congruent,entertainment,Spillover,1544,1544,,1544,0,0,0,0,0,0,1895,2,13660
5_1,22_cong,congruent,entertainment,Coda,1170,1170,,1170,0,0,0,0,0,0,1895,2,13660
5_1,13_inc,incongruent,entertainment,Context,14406,14406,,14406,0,0,0,0,0,1,3020,2,18369
5_1,13_inc,incongruent,entertainment,Target,1279,1279,,1279,0,0,0,0,0,1,3020,2,18369
5_1,13_inc,incongruent,entertainment,Spillover,1120,1120,,1120,0,0,0,0,0,1,3020,2,18369
5_1,13_inc,incongruent,entertainment,Coda,1564,1564,,1564,0,0,0,0,0,1,3020,2,18369
5_1,14_cong,congruent,entertainment,Context,10082,10082,,10082,0,0,0,0,0,0,2892,2,13003
5_1,14_cong,congruent,entertainment,Target,1759,1400,359,1400,1,1,0,0,0,0,2892,2,13003
5_1,14_cong,congruent,entertainment,Spillover,1162,1162,,1521,0,0,1,1,0,0,2892,2,13003
5_1,14_cong,congruent,entertainment,Coda,0,.,,.,.,.,.,.,1,0,2892,2,13003
5_1,19_inc,incongruent,entertainment,Context,8480,8011,469,8011,1,1,0,0,0,1,2496,2,13222
5_1,19_inc,incongruent,entertainment,Target,1961,1709,252,2178,1,1,1,1,0,1,2496,2,13222
5_1,19_inc,incongruent,entertainment,Spillover,1910,1910,,2162,0,0,1,1,0,1,2496,2,13222
5_1,19_inc,incongruent,entertainment,Coda,871,871,,871,0,0,0,0,0,1,2496,2,13222
5_1,20_cong,congruent,entertainment,Context,13816,12020,428,12020,1,3,0,0,0,1,2389,2,23084
5_1,20_cong,congruent,entertainment,Target,2390,1799,284,2511,1,1,1,1,0,1,2389,2,23084
5_1,20_cong,congruent,entertainment,Spillover,5495,2660,254,2660,1,2,0,0,0,1,2389,2,23084
5_1,20_cong,congruent,entertainment,Coda,1383,110,1273,5893,0,0,1,2,0,1,2389,2,23084
5_1,15_inc,incongruent,entertainment,Context,26333,19191,7142,19191,1,1,0,0,0,0,2192,2,31496
5_1,15_inc,incongruent,entertainment,Target,2629,1108,1521,1108,0,0,0,0,0,0,2192,2,31496
5_1,15_inc,incongruent,entertainment,Spillover,1065,1065,,1065,0,0,0,0,0,0,2192,2,31496
5_1,15_inc,incongruent,entertainment,Coda,1469,1469,,10132,0,0,1,1,0,0,2192,2,31496
5_1,18_cong,congruent,entertainment,Context,18603,10598,8005,10598,1,1,0,0,0,0,1940,2,22950
5_1,18_cong,congruent,entertainment,Target,2144,212,1932,10149,0,0,1,1,0,0,1940,2,22950
5_1,18_cong,congruent,entertainment,Spillover,1451,1451,,1451,0,0,0,0,0,0,1940,2,22950
5_1,18_cong,congruent,entertainment,Coda,752,752,,752,0,0,0,0,0,0,1940,2,22950
5_1,23_inc,incongruent,entertainment,Context,20080,18451,1629,18451,1,1,0,0,0,0,2989,2,24339
5_1,23_inc,incongruent,entertainment,Target,1522,1522,,1522,0,0,0,0,0,0,2989,2,24339
5_1,23_inc,incongruent,entertainment,Spillover,860,709,151,2338,1,1,1,1,0,0,2989,2,24339
5_1,23_inc,incongruent,entertainment,Coda,1877,123,1754,2028,0,0,1,1,0,0,2989,2,24339
6_2,3_cong,congruent,entertainment,Context,15672,15672,,15672,0,0,0,0,0,0,6745,1,23899
6_2,3_cong,congruent,entertainment,Target,3294,3294,,3294,0,0,0,0,0,0,6745,1,23899
6_2,3_cong,congruent,entertainment,Spillover,2186,1461,725,2186,0,0,0,0,0,0,6745,1,23899
6_2,3_cong,congruent,entertainment,Coda,2617,2617,,2617,0,0,0,0,0,0,6745,1,23899
6_2,7_cong,congruent,entertainment,Context,13879,13879,,13879,0,0,0,0,0,0,11032,1,19827
6_2,7_cong,congruent,entertainment,Target,1934,1934,,1934,0,0,0,0,0,0,11032,1,19827
6_2,7_cong,congruent,entertainment,Spillover,1845,1845,,1845,0,0,0,0,0,0,11032,1,19827
6_2,7_cong,congruent,entertainment,Coda,2169,2169,,2169,0,0,0,0,0,0,11032,1,19827
6_2,5_cong,congruent,entertainment,Context,15235,3889,479,14245,1,1,0,0,0,0,4349,1,21648
6_2,5_cong,congruent,entertainment,Target,2541,2211,330,2211,0,0,0,0,0,0,4349,1,21648
6_2,5_cong,congruent,entertainment,Spillover,2004,164,1302,3324,0,0,1,1,0,0,4349,1,21648
6_2,5_cong,congruent,entertainment,Coda,1236,1236,,1236,0,0,0,0,0,0,4349,1,21648
6_2,4_inc,incongruent,entertainment,Context,19977,4120,9506,19977,0,0,0,0,0,1,5183,1,26801
6_2,4_inc,incongruent,entertainment,Target,2612,2210,402,2210,1,1,0,0,0,1,5183,1,26801
6_2,4_inc,incongruent,entertainment,Spillover,1590,402,1058,1862,1,1,1,1,0,1,5183,1,26801
6_2,4_inc,incongruent,entertainment,Coda,2161,140,2021,2291,0,0,1,1,0,1,5183,1,26801
6_2,6_inc,incongruent,entertainment,Context,17017,11861,212,11861,1,2,0,0,0,0,4532,1,23797
6_2,6_inc,incongruent,entertainment,Target,2566,297,2269,2778,0,0,1,1,0,0,4532,1,23797
6_2,6_inc,incongruent,entertainment,Spillover,2521,2521,,2521,0,0,0,0,0,0,4532,1,23797
6_2,6_inc,incongruent,entertainment,Coda,1693,1693,,6637,0,0,1,1,0,0,4532,1,23797
6_2,1_cong,congruent,entertainment,Context,11784,11784,,11784,0,0,0,0,0,1,3239,1,17674
6_2,1_cong,congruent,entertainment,Target,1906,1906,,1906,0,0,0,0,0,1,3239,1,17674
6_2,1_cong,congruent,entertainment,Spillover,1808,1676,132,1676,1,1,0,0,0,1,3239,1,17674
6_2,1_cong,congruent,entertainment,Coda,2020,248,1772,2152,0,0,1,1,0,1,3239,1,17674
6_2,11_cong,congruent,entertainment,Context,12713,11341,141,11341,1,2,0,0,0,1,4233,1,26636
6_2,11_cong,congruent,entertainment,Target,3175,1614,359,1614,1,2,0,0,0,1,4233,1,26636
6_2,11_cong,congruent,entertainment,Spillover,6083,152,3984,4495,1,1,1,1,0,1,4233,1,26636
6_2,11_cong,congruent,entertainment,Coda,4665,3565,1100,9186,0,0,1,2,0,1,4233,1,26636
6_2,9_cong,congruent,entertainment,Context,25618,792,1571,18816,1,1,0,0,0,0,3771,1,35425
6_2,9_cong,congruent,entertainment,Target,2528,1788,740,1788,0,0,0,0,0,0,3771,1,35425
6_2,9_cong,congruent,entertainment,Spillover,3208,2535,673,2535,0,0,0,0,0,0,3771,1,35425
6_2,9_cong,congruent,entertainment,Coda,2496,2136,360,10711,0,0,1,1,0,0,3771,1,35425
6_2,12_inc,incongruent,entertainment,Context,13851,5659,8057,5659,1,2,0,0,0,1,4331,1,21453
6_2,12_inc,incongruent,entertainment,Target,4385,210,1052,12449,1,1,1,2,0,1,4331,1,21453
6_2,12_inc,incongruent,entertainment,Spillover,1755,208,1547,1883,0,0,1,1,0,1,4331,1,21453
6_2,12_inc,incongruent,entertainment,Coda,1334,1334,,1334,0,0,0,0,0,1,4331,1,21453
6_2,16_inc,incongruent,fact_check,Context,21087,20928,159,20928,1,1,0,0,0,1,5092,2,25744
6_2,16_inc,incongruent,fact_check,Target,1946,1779,167,1779,1,1,0,0,0,1,5092,2,25744
6_2,16_inc,incongruent,fact_check,Spillover,1138,123,1015,1305,0,0,1,1,0,1,5092,2,25744
6_2,16_inc,incongruent,fact_check,Coda,1573,1573,,1732,0,0,1,1,0,1,5092,2,25744
6_2,15_cong,congruent,fact_check,Context,15894,10084,5347,10084,1,2,0,0,0,1,3996,2,24883
6_2,15_cong,congruent,fact_check,Target,3870,2221,1501,2221,0,0,0,0,0,1,3996,2,24883
6_2,15_cong,congruent,fact_check,Spillover,3287,996,554,10746,0,0,1,2,0,1,3996,2,24883
6_2,15_cong,congruent,fact_check,Coda,1832,1832,,1832,0,0,0,0,0,1,3996,2,24883
6_2,21_cong,congruent,fact_check,Context,14392,14214,178,14214,1,1,0,0,0,0,3489,2,21553
6_2,21_cong,congruent,fact_check,Target,3045,3045,,3045,0,0,0,0,0,0,3489,2,21553
6_2,21_cong,congruent,fact_check,Spillover,2621,2621,,2621,0,0,0,0,0,0,3489,2,21553
6_2,21_cong,congruent,fact_check,Coda,1495,1495,,1673,0,0,1,1,0,0,3489,2,21553
6_2,19_cong,congruent,fact_check,Context,10678,10678,,10678,0,0,0,0,0,1,3588,2,16999
6_2,19_cong,congruent,fact_check,Target,2559,2389,170,2389,1,1,0,0,0,1,3588,2,16999
6_2,19_cong,congruent,fact_check,Spillover,1483,1029,454,1653,0,0,1,1,0,1,3588,2,16999
6_2,19_cong,congruent,fact_check,Coda,2279,2279,,2279,0,0,0,0,0,1,3588,2,16999
6_2,17_cong,congruent,fact_check,Context,19416,19416,,19416,0,0,0,0,0,1,3934,2,24829
6_2,17_cong,congruent,fact_check,Target,1791,1791,,1791,1,1,0,0,1,1,3934,2,24829
6_2,17_cong,congruent,fact_check,Spillover,1884,183,1701,3675,0,0,1,1,0,1,3934,2,24829
6_2,17_cong,congruent,fact_check,Coda,1738,1738,,1738,0,0,0,0,0,1,3934,2,24829
6_2,14_inc,incongruent,fact_check,Context,14409,9163,1744,10907,1,1,0,0,0,1,4467,2,19296
6_2,14_inc,incongruent,fact_check,Target,1708,1708,,1708,0,0,0,0,0,1,4467,2,19296
6_2,14_inc,incongruent,fact_check,Spillover,1635,1635,,1635,0,0,0,0,0,1,4467,2,19296
6_2,14_inc,incongruent,fact_check,Coda,1448,1448,,4950,0,0,1,1,0,1,4467,2,19296
6_2,13_cong,congruent,fact_check,Context,14370,4094,9643,13737,1,1,0,0,0,1,4574,2,20912
6_2,13_cong,congruent,fact_check,Target,2246,2246,,2246,0,0,0,0,0,1,4574,2,20912
6_2,13_cong,congruent,fact_check,Spillover,2003,2003,,2003,0,0,0,0,0,1,4574,2,20912
6_2,13_cong,congruent,fact_check,Coda,2160,2160,,2793,0,0,1,1,0,1,4574,2,20912
6_2,20_inc,incongruent,fact_check,Context,12113,3629,625,7713,1,3,0,0,0,1,5829,2,18260
6_2,20_inc,incongruent,fact_check,Target,1869,367,603,3610,0,0,1,2,0,1,5829,2,18260
6_2,20_inc,incongruent,fact_check,Spillover,2266,2266,,2266,0,0,0,0,0,1,5829,2,18260
6_2,20_inc,incongruent,fact_check,Coda,1790,1790,,4449,0,0,1,1,0,1,5829,2,18260
6_2,22_inc,incongruent,fact_check,Context,15950,15306,644,15306,1,1,0,0,0,1,3124,2,21708
6_2,22_inc,incongruent,fact_check,Target,1194,114,1080,1838,0,0,1,1,0,1,3124,2,21708
6_2,22_inc,incongruent,fact_check,Spillover,2405,2405,,2405,0,0,0,0,0,1,3124,2,21708
6_2,22_inc,incongruent,fact_check,Coda,2159,2159,,2159,0,0,0,0,0,1,3124,2,21708
6_2,23_cong,congruent,fact_check,Context,14528,14140,388,14140,1,1,0,0,0,1,3705,2,20905
6_2,23_cong,congruent,fact_check,Target,2505,1231,693,2312,1,1,1,1,0,1,3705,2,20905
6_2,23_cong,congruent,fact_check,Spillover,1936,1936,,2517,0,0,1,1,0,1,3705,2,20905
6_2,23_cong,congruent,fact_check,Coda,1936,1936,,1936,0,0,0,0,0,1,3705,2,20905
6_2,18_inc,incongruent,fact_check,Context,17900,10991,165,10991,1,3,0,0,0,1,4179,2,25941
6_2,18_inc,incongruent,fact_check,Target,4696,206,1960,2331,1,3,1,1,0,1,4179,2,25941
6_2,18_inc,incongruent,fact_check,Spillover,2165,150,231,7035,0,0,1,2,0,1,4179,2,25941
6_2,18_inc,incongruent,fact_check,Coda,1180,233,947,5584,0,0,1,2,0,1,4179,2,25941
7_1,4_cong,congruent,fact_check,Context,14929,14929,,14929,0,0,0,0,0,1,6263,1,22187
7_1,4_cong,congruent,fact_check,Target,2862,2862,,2862,0,0,0,0,0,1,6263,1,22187
7_1,4_cong,congruent,fact_check,Spillover,2826,2826,,2826,0,0,0,0,0,1,6263,1,22187
7_1,4_cong,congruent,fact_check,Coda,1570,1570,,1570,0,0,0,0,0,1,6263,1,22187
7_1,7_inc,incongruent,fact_check,Context,13876,13876,,13876,0,0,0,0,0,0,6619,1,21322
7_1,7_inc,incongruent,fact_check,Target,2558,2281,277,2281,1,1,0,0,0,0,6619,1,21322
7_1,7_inc,incongruent,fact_check,Spillover,2453,723,1730,2730,0,0,1,1,0,0,6619,1,21322
7_1,7_inc,incongruent,fact_check,Coda,2435,2435,,2435,0,0,0,0,0,0,6619,1,21322
7_1,5_inc,incongruent,fact_check,Context,15599,13938,1661,13938,1,1,0,0,0,0,6028,1,25116
7_1,5_inc,incongruent,fact_check,Target,5764,3954,1810,3954,1,1,0,0,0,0,6028,1,25116
7_1,5_inc,incongruent,fact_check,Spillover,2115,2115,,2115,0,0,0,0,0,0,6028,1,25116
7_1,5_inc,incongruent,fact_check,Coda,1638,1638,,5109,0,0,1,1,0,0,6028,1,25116
7_1,12_cong,congruent,fact_check,Context,12542,12456,86,12456,1,1,0,0,0,1,5987,1,17596
7_1,12_cong,congruent,fact_check,Target,1728,1728,,1728,0,0,0,0,0,1,5987,1,17596
7_1,12_cong,congruent,fact_check,Spillover,1363,1363,,1363,0,0,0,0,0,1,5987,1,17596
7_1,12_cong,congruent,fact_check,Coda,1963,1963,,2049,0,0,1,1,0,1,5987,1,17596
7_1,6_cong,congruent,fact_check,Context,15087,12688,1276,12688,1,2,0,0,0,1,5493,1,22984
7_1,6_cong,congruent,fact_check,Target,3668,3551,117,3551,1,1,0,0,0,1,5493,1,22984
7_1,6_cong,congruent,fact_check,Spillover,2127,1939,188,1939,0,0,0,0,0,1,5493,1,22984
7_1,6_cong,congruent,fact_check,Coda,2102,1746,356,4806,0,0,1,2,0,1,5493,1,22984
7_1,9_inc,incongruent,fact_check,Context,19406,15111,482,15111,1,4,0,0,0,1,3509,1,26670
7_1,9_inc,incongruent,fact_check,Target,2462,2330,132,2944,0,0,1,1,0,1,3509,1,26670
7_1,9_inc,incongruent,fact_check,Spillover,3190,767,390,6697,0,0,1,2,0,1,3509,1,26670
7_1,9_inc,incongruent,fact_check,Coda,1612,1612,,1918,0,0,1,1,0,1,3509,1,26670
7_1,3_inc,incongruent,fact_check,Context,18848,16715,2133,16715,1,1,0,0,0,1,3913,1,27436
7_1,3_inc,incongruent,fact_check,Target,4670,4191,479,4191,0,0,0,0,0,1,3913,1,27436
7_1,3_inc,incongruent,fact_check,Spillover,1759,1759,,1759,0,0,0,0,0,1,3913,1,27436
7_1,3_inc,incongruent,fact_check,Coda,2159,2159,,4771,0,0,1,1,0,1,3913,1,27436
7_1,1_inc,incongruent,fact_check,Context,18080,17481,284,17481,1,2,0,0,0,1,3909,1,27343
7_1,1_inc,incongruent,fact_check,Target,3570,2629,152,2629,0,0,0,0,0,1,3909,1,27343
7_1,1_inc,incongruent,fact_check,Spillover,3578,3578,,3578,0,0,0,0,0,1,3909,1,27343
7_1,1_inc,incongruent,fact_check,Coda,2115,2115,,3655,0,0,1,1,0,1,3909,1,27343
7_1,11_inc,incongruent,fact_check,Context,18113,16414,480,16414,1,2,0,0,0,0,2544,1,26373
7_1,11_inc,incongruent,fact_check,Target,1926,1548,378,1548,0,0,0,0,0,0,2544,1,26373
7_1,11_inc,incongruent,fact_check,Spillover,2744,402,2342,3602,0,0,1,1,0,0,2544,1,26373
7_1,11_inc,incongruent,fact_check,Coda,3590,3590,,4809,0,0,1,1,0,0,2544,1,26373
7_1,23_inc,incongruent,entertainment,Context,21061,21061,,21061,0,0,0,0,0,0,6665,2,30693
7_1,23_inc,incongruent,entertainment,Target,2668,2517,151,2517,1,1,0,0,0,0,6665,2,30693
7_1,23_inc,incongruent,entertainment,Spillover,2856,2266,590,2266,1,1,0,0,0,0,6665,2,30693
7_1,23_inc,incongruent,entertainment,Coda,4108,4108,,4849,0,0,1,1,0,0,6665,2,30693
7_1,17_inc,incongruent,entertainment,Context,20094,16775,1024,16775,1,3,0,0,0,1,2619,2,29068
7_1,17_inc,incongruent,entertainment,Target,3870,416,2591,5521,1,2,1,2,0,1,2619,2,29068
7_1,17_inc,incongruent,entertainment,Spillover,2437,2092,345,2092,0,0,0,0,0,1,2619,2,29068
7_1,17_inc,incongruent,entertainment,Coda,2667,2667,,4680,0,0,1,1,0,1,2619,2,29068
7_1,15_inc,incongruent,entertainment,Context,15933,14820,281,14820,1,3,0,0,0,1,3629,2,24567
7_1,15_inc,incongruent,entertainment,Target,3679,2064,511,2856,0,0,1,1,0,1,3629,2,24567
7_1,15_inc,incongruent,entertainment,Spillover,2247,2039,208,2039,1,1,0,0,0,1,3629,2,24567
7_1,15_inc,incongruent,entertainment,Coda,2708,2708,,4852,0,0,1,1,0,1,3629,2,24567
7_1,13_inc,incongruent,entertainment,Context,21860,16635,5225,16635,1,1,0,0,0,1,3363,2,31566
7_1,13_inc,incongruent,entertainment,Target,3427,3427,,3427,0,0,0,0,0,1,3363,2,31566
7_1,13_inc,incongruent,entertainment,Spillover,2916,2916,,2916,0,0,0,0,0,1,3363,2,31566
7_1,13_inc,incongruent,entertainment,Coda,3363,3363,,8588,0,0,1,1,0,1,3363,2,31566
7_1,18_cong,congruent,entertainment,Context,17839,15612,2227,15612,1,1,0,0,0,0,2830,2,26771
7_1,18_cong,congruent,entertainment,Target,3579,2228,1351,2228,0,0,0,0,0,0,2830,2,26771
7_1,18_cong,congruent,entertainment,Spillover,3256,3256,,3256,0,0,0,0,0,0,2830,2,26771
7_1,18_cong,congruent,entertainment,Coda,2097,2097,,5675,0,0,1,1,0,0,2830,2,26771
7_1,14_cong,congruent,entertainment,Context,24619,19699,2556,19699,1,2,0,0,0,1,4166,2,32510
7_1,14_cong,congruent,entertainment,Target,1896,374,1522,4452,0,0,1,1,0,1,4166,2,32510
7_1,14_cong,congruent,entertainment,Spillover,2213,2213,,2213,0,0,0,0,0,1,4166,2,32510
7_1,14_cong,congruent,entertainment,Coda,3782,3782,,6146,0,0,1,1,0,1,4166,2,32510
7_1,22_cong,congruent,entertainment,Context,16036,14002,2034,14002,1,1,0,0,0,0,3734,2,24782
7_1,22_cong,congruent,entertainment,Target,2877,1951,926,1951,1,1,0,0,0,0,3734,2,24782
7_1,22_cong,congruent,entertainment,Spillover,3901,1731,2170,4827,0,0,1,1,0,0,3734,2,24782
7_1,22_cong,congruent,entertainment,Coda,1968,1968,,4002,0,0,1,1,0,0,3734,2,24782
7_1,16_cong,congruent,entertainment,Context,18385,18281,104,18281,1,1,0,0,0,1,2937,2,27358
7_1,16_cong,congruent,entertainment,Target,3707,2545,381,2545,1,2,0,0,0,1,2937,2,27358
7_1,16_cong,congruent,entertainment,Spillover,3075,2331,379,2331,1,1,0,0,0,1,2937,2,27358
7_1,16_cong,congruent,entertainment,Coda,2191,2191,,4201,0,0,1,1,0,1,2937,2,27358
7_1,19_inc,incongruent,entertainment,Context,12847,12306,541,12306,1,1,0,0,0,1,3566,2,22712
7_1,19_inc,incongruent,entertainment,Target,4416,2057,757,3355,1,2,1,1,0,1,3566,2,22712
7_1,19_inc,incongruent,entertainment,Spillover,3507,2136,1371,3697,0,0,1,1,0,1,3566,2,22712
7_1,19_inc,incongruent,entertainment,Coda,1942,1942,,3354,0,0,1,1,0,1,3566,2,22712
7_1,20_cong,congruent,entertainment,Context,14669,13063,1606,13063,1,1,0,0,0,1,3093,2,20778
7_1,20_cong,congruent,entertainment,Target,1616,1616,,1616,0,0,0,0,0,1,3093,2,20778
7_1,20_cong,congruent,entertainment,Spillover,2463,2463,,2463,0,0,0,0,0,1,3093,2,20778
7_1,20_cong,congruent,entertainment,Coda,2030,2030,,3636,0,0,1,1,0,1,3093,2,20778
7_1,21_inc,incongruent,entertainment,Context,20723,17714,442,17714,1,5,0,0,0,0,3186,2,31717
7_1,21_inc,incongruent,entertainment,Target,4806,261,1738,2441,0,0,1,1,0,0,3186,2,31717
7_1,21_inc,incongruent,entertainment,Spillover,4131,4131,,4131,0,0,0,0,0,0,3186,2,31717
7_1,21_inc,incongruent,entertainment,Coda,2057,2057,,7431,0,0,1,1,0,0,3186,2,31717
8_2,11_cong,congruent,entertainment,Context,9707,3091,6616,9707,0,0,0,0,0,1,6140,1,20786
8_2,11_cong,congruent,entertainment,Target,2663,2663,,2663,0,0,0,0,0,1,6140,1,20786
8_2,11_cong,congruent,entertainment,Spillover,3983,2007,1976,2007,1,1,0,0,0,1,6140,1,20786
8_2,11_cong,congruent,entertainment,Coda,4123,1287,2836,6099,0,0,1,1,0,1,6140,1,20786
8_2,12_inc,incongruent,entertainment,Context,8540,3738,2896,8211,1,1,0,0,0,0,4795,1,16537
8_2,12_inc,incongruent,entertainment,Target,2255,1680,193,1680,1,1,0,0,0,0,4795,1,16537
8_2,12_inc,incongruent,entertainment,Spillover,2936,392,2359,3273,1,1,1,1,0,0,4795,1,16537
8_2,12_inc,incongruent,entertainment,Coda,2003,327,1676,2570,0,0,1,2,0,0,4795,1,16537
8_2,9_cong,congruent,entertainment,Context,8993,8993,,8993,0,0,0,0,0,1,4459,1,14045
8_2,9_cong,congruent,entertainment,Target,1336,1336,,1336,0,0,0,0,0,1,4459,1,14045
8_2,9_cong,congruent,entertainment,Spillover,1703,1703,,1703,0,0,0,0,0,1,4459,1,14045
8_2,9_cong,congruent,entertainment,Coda,2013,2013,,2013,0,0,0,0,0,1,4459,1,14045
8_2,1_cong,congruent,entertainment,Context,9202,3688,5514,9202,0,0,0,0,0,1,5031,1,15723
8_2,1_cong,congruent,entertainment,Target,1442,1442,,1442,0,0,0,0,0,1,5031,1,15723
8_2,1_cong,congruent,entertainment,Spillover,2454,2122,332,2122,1,1,0,0,0,1,5031,1,15723
8_2,1_cong,congruent,entertainment,Coda,2276,2276,,2608,0,0,1,1,0,1,5031,1,15723
8_2,3_cong,congruent,entertainment,Context,12081,11686,395,11686,1,1,0,0,0,1,3751,1,17322
8_2,3_cong,congruent,entertainment,Target,1175,1175,,1175,0,0,0,0,0,1,3751,1,17322
8_2,3_cong,congruent,entertainment,Spillover,1624,1624,,1624,0,0,0,0,0,1,3751,1,17322
8_2,3_cong,congruent,entertainment,Coda,2442,1914,528,2837,0,0,1,1,0,1,3751,1,17322
8_2,5_cong,congruent,entertainment,Context,8014,2848,5166,8014,0,0,0,0,0,1,3677,1,13763
8_2,5_cong,congruent,entertainment,Target,1840,1840,,1840,0,0,0,0,0,1,3677,1,13763
8_2,5_cong,congruent,entertainment,Spillover,1921,1921,,1921,0,0,0,0,0,1,3677,1,13763
8_2,5_cong,congruent,entertainment,Coda,1818,1818,,1818,0,0,0,0,0,1,3677,1,13763
8_2,7_cong,congruent,entertainment,Context,8970,2572,6398,8970,0,0,0,0,0,1,3119,1,14480
8_2,7_cong,congruent,entertainment,Target,1351,1351,,1351,0,0,0,0,0,1,3119,1,14480
8_2,7_cong,congruent,entertainment,Spillover,1553,1553,,1553,0,0,0,0,0,1,3119,1,14480
8_2,7_cong,congruent,entertainment,Coda,2287,2287,,2287,0,0,0,0,0,1,3119,1,14480
8_2,4_inc,incongruent,entertainment,Context,11132,5285,5715,11000,1,1,0,0,0,1,5896,1,19842
8_2,4_inc,incongruent,entertainment,Target,1972,1816,156,2104,0,0,1,1,0,1,5896,1,19842
8_2,4_inc,incongruent,entertainment,Spillover,2027,1783,244,1783,1,1,0,0,0,1,5896,1,19842
8_2,4_inc,incongruent,entertainment,Coda,4329,3213,1116,4573,0,0,1,1,0,1,5896,1,19842
8_2,6_inc,incongruent,entertainment,Context,11254,3144,5986,9130,1,2,0,0,0,1,3274,1,19282
8_2,6_inc,incongruent,entertainment,Target,3991,2372,1490,2790,1,1,1,1,0,1,3274,1,19282
8_2,6_inc,incongruent,entertainment,Spillover,2149,2149,,2149,0,0,0,0,0,1,3274,1,19282
8_2,6_inc,incongruent,entertainment,Coda,1751,1751,,5076,0,0,1,1,0,1,3274,1,19282
8_2,19_cong,congruent,fact_check,Context,10604,5699,1750,10168,1,1,0,0,0,1,3761,2,17389
8_2,19_cong,congruent,fact_check,Target,1751,1751,,1751,0,0,0,0,0,1,3761,2,17389
8_2,19_cong,congruent,fact_check,Spillover,1616,353,1263,2052,0,0,1,1,0,1,3761,2,17389
8_2,19_cong,congruent,fact_check,Coda,2810,2810,,2810,0,0,0,0,0,1,3761,2,17389
8_2,18_inc,incongruent,fact_check,Context,13372,3097,7130,10227,1,2,0,0,0,1,6930,2,22617
8_2,18_inc,incongruent,fact_check,Target,4473,2224,176,7618,0,0,1,2,0,1,6930,2,22617
8_2,18_inc,incongruent,fact_check,Spillover,1676,1676,,1676,0,0,0,0,0,1,6930,2,22617
8_2,18_inc,incongruent,fact_check,Coda,2805,2805,,2805,0,0,0,0,0,1,6930,2,22617
8_2,13_cong,congruent,fact_check,Context,11855,4256,7599,11855,0,0,0,0,0,1,3612,2,17711
8_2,13_cong,congruent,fact_check,Target,1981,1981,,1981,0,0,0,0,0,1,3612,2,17711
8_2,13_cong,congruent,fact_check,Spillover,1590,1590,,1590,0,0,0,0,0,1,3612,2,17711
8_2,13_cong,congruent,fact_check,Coda,1863,1863,,1863,0,0,0,0,0,1,3612,2,17711
8_2,15_cong,congruent,fact_check,Context,8073,8073,,8073,0,0,0,0,0,1,4154,2,14277
8_2,15_cong,congruent,fact_check,Target,2516,2516,,2516,0,0,0,0,0,1,4154,2,14277
8_2,15_cong,congruent,fact_check,Spillover,2134,2134,,2134,0,0,0,0,0,1,4154,2,14277
8_2,15_cong,congruent,fact_check,Coda,1554,1554,,1554,0,0,0,0,0,1,4154,2,14277
8_2,16_inc,incongruent,fact_check,Context,9908,3240,6668,9908,0,0,0,0,0,1,3950,2,15953
8_2,16_inc,incongruent,fact_check,Target,2055,2055,,2055,0,0,0,0,0,1,3950,2,15953
8_2,16_inc,incongruent,fact_check,Spillover,1990,1990,,1990,0,0,0,0,0,1,3950,2,15953
8_2,16_inc,incongruent,fact_check,Coda,1813,1813,,1813,0,0,0,0,0,1,3950,2,15953
8_2,22_inc,incongruent,fact_check,Context,10766,2898,7726,10624,1,1,0,0,0,1,4119,2,15662
8_2,22_inc,incongruent,fact_check,Target,1068,1068,,1068,0,0,0,0,0,1,4119,2,15662
8_2,22_inc,incongruent,fact_check,Spillover,1704,1704,,1704,0,0,0,0,0,1,4119,2,15662
8_2,22_inc,incongruent,fact_check,Coda,1788,1584,204,1930,0,0,1,1,0,1,4119,2,15662
8_2,23_cong,congruent,fact_check,Context,10065,10065,,10065,0,0,0,0,0,1,3601,2,17252
8_2,23_cong,congruent,fact_check,Target,2568,2568,,2568,0,0,0,0,0,1,3601,2,17252
8_2,23_cong,congruent,fact_check,Spillover,1605,1605,,1605,0,0,0,0,0,1,3601,2,17252
8_2,23_cong,congruent,fact_check,Coda,3014,3014,,3014,0,0,0,0,0,1,3601,2,17252
8_2,14_inc,incongruent,fact_check,Context,12465,3495,6530,10025,1,3,0,0,0,1,4943,2,21678
8_2,14_inc,incongruent,fact_check,Target,3251,205,197,2960,0,0,1,2,0,1,4943,2,21678
8_2,14_inc,incongruent,fact_check,Spillover,3067,960,2107,5798,0,0,1,1,0,1,4943,2,21678
8_2,14_inc,incongruent,fact_check,Coda,2672,2672,,2672,0,0,0,0,0,1,4943,2,21678
8_2,21_cong,congruent,fact_check,Context,11155,11155,,11155,0,0,0,0,0,1,5878,2,16247
8_2,21_cong,congruent,fact_check,Target,1727,1727,,1727,0,0,0,0,0,1,5878,2,16247
8_2,21_cong,congruent,fact_check,Spillover,1321,1321,,1321,0,0,0,0,0,1,5878,2,16247
8_2,21_cong,congruent,fact_check,Coda,2044,2044,,2044,0,0,0,0,0,1,5878,2,16247
8_2,17_cong,congruent,fact_check,Context,10779,3423,7356,10779,0,0,0,0,0,0,10200,2,16589
8_2,17_cong,congruent,fact_check,Target,1477,1477,,1477,0,0,0,0,0,0,10200,2,16589
8_2,17_cong,congruent,fact_check,Spillover,1960,1960,,1960,0,0,0,0,0,0,10200,2,16589
8_2,17_cong,congruent,fact_check,Coda,2147,2147,,2147,0,0,0,0,0,0,10200,2,16589
8_2,20_inc,incongruent,fact_check,Context,10131,3784,6239,10023,1,1,0,0,0,1,4244,2,16741
8_2,20_inc,incongruent,fact_check,Target,2687,2687,,2687,0,0,0,0,0,1,4244,2,16741
8_2,20_inc,incongruent,fact_check,Spillover,1962,1962,,1962,0,0,0,0,0,1,4244,2,16741
8_2,20_inc,incongruent,fact_check,Coda,1820,1820,,1928,0,0,1,1,0,1,4244,2,16741
9_1,4_cong,congruent,fact_check,Context,9145,9145,,9145,0,0,0,0,0,0,9190,1,13084
9_1,4_cong,congruent,fact_check,Target,1038,1038,,1038,0,0,0,0,0,0,9190,1,13084
9_1,4_cong,congruent,fact_check,Spillover,1447,1447,,1447,0,0,0,0,0,0,9190,1,13084
9_1,4_cong,congruent,fact_check,Coda,1454,1454,,1454,0,0,0,0,0,0,9190,1,13084
9_1,6_cong,congruent,fact_check,Context,20080,11545,8535,11545,1,1,0,0,0,1,2942,1,29015
9_1,6_cong,congruent,fact_check,Target,2968,1901,1067,1901,0,0,0,0,0,1,2942,1,29015
9_1,6_cong,congruent,fact_check,Spillover,3285,2127,1158,2127,0,0,0,0,0,1,2942,1,29015
9_1,6_cong,congruent,fact_check,Coda,2682,1928,754,13442,0,0,1,1,0,1,2942,1,29015
9_1,3_inc,incongruent,fact_check,Context,16773,16773,,16773,0,0,0,0,0,1,4592,1,21231
9_1,3_inc,incongruent,fact_check,Target,813,813,,813,0,0,0,0,0,1,4592,1,21231
9_1,3_inc,incongruent,fact_check,Spillover,1612,1431,181,1431,1,1,0,0,0,1,4592,1,21231
9_1,3_inc,incongruent,fact_check,Coda,2033,1792,241,2214,0,0,1,1,0,1,4592,1,21231
9_1,12_cong,congruent,fact_check,Context,8348,8348,,8348,0,0,0,0,0,1,2185,1,12305
9_1,12_cong,congruent,fact_check,Target,1295,1295,,1295,0,0,0,0,0,1,2185,1,12305
9_1,12_cong,congruent,fact_check,Spillover,1256,1256,,1256,0,0,0,0,0,1,2185,1,12305
9_1,12_cong,congruent,fact_check,Coda,1406,1406,,1406,0,0,0,0,0,1,2185,1,12305
9_1,1_inc,incongruent,fact_check,Context,10479,10479,,10479,0,0,0,0,0,0,6275,1,16316
9_1,1_inc,incongruent,fact_check,Target,1238,1238,,1238,0,0,0,0,0,0,6275,1,16316
9_1,1_inc,incongruent,fact_check,Spillover,3132,2659,473,2659,1,1,0,0,0,0,6275,1,16316
9_1,1_inc,incongruent,fact_check,Coda,1467,1467,,1940,0,0,1,1,0,0,6275,1,16316
9_1,9_inc,incongruent,fact_check,Context,10950,10099,851,10099,1,1,0,0,0,0,4467,1,16716
9_1,9_inc,incongruent,fact_check,Target,1307,1307,,1307,0,0,0,0,0,0,4467,1,16716
9_1,9_inc,incongruent,fact_check,Spillover,2230,1977,158,1977,1,2,0,0,0,0,4467,1,16716
9_1,9_inc,incongruent,fact_check,Coda,2229,1767,462,3333,0,0,1,2,0,0,4467,1,16716
9_1,5_inc,incongruent,fact_check,Context,28044,17679,9779,17679,1,3,0,0,0,1,5076,1,35446
9_1,5_inc,incongruent,fact_check,Target,4092,2252,1840,2252,0,0,0,0,0,1,5076,1,35446
9_1,5_inc,incongruent,fact_check,Spillover,2134,891,1243,14229,0,0,1,1,0,1,5076,1,35446
9_1,5_inc,incongruent,fact_check,Coda,1176,1176,,1286,0,0,1,1,0,1,5076,1,35446
9_1,7_inc,incongruent,fact_check,Context,10418,10286,132,10286,1,1,0,0,0,0,3794,1,15594
9_1,7_inc,incongruent,fact_check,Target,2096,1517,579,1517,1,1,0,0,0,0,3794,1,15594
9_1,7_inc,incongruent,fact_check,Spillover,1609,1609,,2188,0,0,1,1,0,0,3794,1,15594
9_1,7_inc,incongruent,fact_check,Coda,1471,1471,,1603,0,0,1,1,0,0,3794,1,15594
9_1,11_inc,incongruent,fact_check,Context,8380,7896,484,7896,1,1,0,0,0,1,3195,1,21018
9_1,11_inc,incongruent,fact_check,Target,918,918,,918,0,0,0,0,0,1,3195,1,21018
9_1,11_inc,incongruent,fact_check,Spillover,3723,1887,355,1887,1,3,0,0,0,1,3195,1,21018
9_1,11_inc,incongruent,fact_check,Coda,7997,2563,2209,10317,0,0,1,4,0,1,3195,1,21018
9_1,23_inc,incongruent,entertainment,Context,15562,12020,3542,12020,1,1,0,0,0,0,4888,2,23974
9_1,23_inc,incongruent,entertainment,Target,3775,1934,1841,7317,0,0,1,1,0,0,4888,2,23974
9_1,23_inc,incongruent,entertainment,Spillover,1394,1394,,1394,0,0,0,0,0,0,4888,2,23974
9_1,23_inc,incongruent,entertainment,Coda,3243,3243,,3243,0,0,0,0,0,0,4888,2,23974
9_1,13_inc,incongruent,entertainment,Context,25534,12668,814,12668,1,3,0,0,0,1,3484,2,39344
9_1,13_inc,incongruent,entertainment,Target,5101,1921,415,1921,0,0,0,0,0,1,3484,2,39344
9_1,13_inc,incongruent,entertainment,Spillover,4025,1322,1464,1322,1,1,0,0,0,1,3484,2,39344
9_1,13_inc,incongruent,entertainment,Coda,4684,1343,1239,23433,0,0,1,2,0,1,3484,2,39344
9_1,15_inc,incongruent,entertainment,Context,19172,11562,571,11562,1,3,0,0,0,0,8789,2,30534
9_1,15_inc,incongruent,entertainment,Target,6917,2547,283,2547,1,2,0,0,0,0,8789,2,30534
9_1,15_inc,incongruent,entertainment,Spillover,2670,1083,318,1083,0,0,0,0,0,0,8789,2,30534
9_1,15_inc,incongruent,entertainment,Coda,1775,487,1288,15342,0,0,1,1,0,0,8789,2,30534
9_1,21_inc,incongruent,entertainment,Context,16310,9945,6365,9945,1,1,0,0,0,1,4833,2,24306
9_1,21_inc,incongruent,entertainment,Target,4124,1567,2557,1567,0,0,0,0,0,1,4833,2,24306
9_1,21_inc,incongruent,entertainment,Spillover,2233,1428,805,1428,0,0,0,0,0,1,4833,2,24306
9_1,21_inc,incongruent,entertainment,Coda,1639,174,1465,11366,0,0,1,1,0,1,4833,2,24306
9_1,17_inc,incongruent,entertainment,Context,10273,8644,1171,8644,1,2,0,0,0,0,2971,2,16504
9_1,17_inc,incongruent,entertainment,Target,3110,2015,755,3941,1,1,1,1,0,0,2971,2,16504
9_1,17_inc,incongruent,entertainment,Spillover,1328,1328,,1328,0,0,0,0,0,0,2971,2,16504
9_1,17_inc,incongruent,entertainment,Coda,1687,1470,217,2485,0,0,1,1,0,0,2971,2,16504
9_1,19_inc,incongruent,entertainment,Context,16425,7874,1722,7874,1,2,0,0,0,0,3141,2,29472
9_1,19_inc,incongruent,entertainment,Target,5613,1996,2554,1996,0,0,0,0,0,0,3141,2,29472
9_1,19_inc,incongruent,entertainment,Spillover,3643,1710,164,1710,0,0,0,0,0,0,3141,2,29472
9_1,19_inc,incongruent,entertainment,Coda,3791,2078,236,17892,0,0,1,2,0,0,3141,2,29472
9_1,20_cong,congruent,entertainment,Context,8690,2532,108,7816,1,3,0,0,0,1,3425,2,14230
9_1,20_cong,congruent,entertainment,Target,2191,146,743,1022,0,0,1,1,0,1,3425,2,14230
9_1,20_cong,congruent,entertainment,Spillover,843,349,258,2056,0,0,1,1,0,1,3425,2,14230
9_1,20_cong,congruent,entertainment,Coda,1771,1057,714,2601,0,0,1,1,0,1,3425,2,14230
9_1,22_cong,congruent,entertainment,Context,16905,10059,569,10059,1,3,0,0,0,0,2878,2,21999
9_1,22_cong,congruent,entertainment,Target,1262,116,973,1658,0,0,1,1,0,0,2878,2,21999
9_1,22_cong,congruent,entertainment,Spillover,2339,2339,,2339,0,0,0,0,0,0,2878,2,21999
9_1,22_cong,congruent,entertainment,Coda,1410,1277,133,7860,0,0,1,1,0,0,2878,2,21999
10_2,3_cong,congruent,entertainment,Context,7215,7215,,7215,0,0,0,0,0,1,5714,1,11867
10_2,3_cong,congruent,entertainment,Target,928,928,,928,0,0,0,0,0,1,5714,1,11867
10_2,3_cong,congruent,entertainment,Spillover,1374,1374,,1374,0,0,0,0,0,1,5714,1,11867
10_2,3_cong,congruent,entertainment,Coda,2350,2350,,2350,0,0,0,0,0,1,5714,1,11867
10_2,10_inc,incongruent,entertainment,Context,5913,5913,,5913,0,0,0,0,0,0,7738,1,9046
10_2,10_inc,incongruent,entertainment,Target,1021,1021,,1021,0,0,0,0,0,0,7738,1,9046
10_2,10_inc,incongruent,entertainment,Spillover,913,913,,913,0,0,0,0,0,0,7738,1,9046
10_2,10_inc,incongruent,entertainment,Coda,1199,1199,,1199,0,0,0,0,0,0,7738,1,9046
10_2,9_cong,congruent,entertainment,Context,9527,9527,,9527,0,0,0,0,0,1,6021,1,15729
10_2,9_cong,congruent,entertainment,Target,1994,1994,,1994,0,0,0,0,0,1,6021,1,15729
10_2,9_cong,congruent,entertainment,Spillover,1556,1556,,1556,0,0,0,0,0,1,6021,1,15729
10_2,9_cong,congruent,entertainment,Coda,2652,2652,,2652,0,0,0,0,0,1,6021,1,15729
10_2,8_inc,incongruent,entertainment,Context,8913,8397,516,8397,1,1,0,0,0,0,4423,1,15974
10_2,8_inc,incongruent,entertainment,Target,1999,1999,,1999,0,0,0,0,0,0,4423,1,15974
10_2,8_inc,incongruent,entertainment,Spillover,2820,2686,134,2686,1,1,0,0,0,0,4423,1,15974
10_2,8_inc,incongruent,entertainment,Coda,2242,2242,,2892,0,0,1,1,0,0,4423,1,15974
10_2,6_inc,incongruent,entertainment,Context,9585,9197,388,9197,1,1,0,0,0,0,6293,1,14264
10_2,6_inc,incongruent,entertainment,Target,1558,1558,,1558,0,0,0,0,0,0,6293,1,14264
10_2,6_inc,incongruent,entertainment,Spillover,1345,1345,,1345,0,0,0,0,0,0,6293,1,14264
10_2,6_inc,incongruent,entertainment,Coda,1776,1776,,2164,0,0,1,1,0,0,6293,1,14264
10_2,2_inc,incongruent,entertainment,Context,14718,8429,6289,8429,1,1,0,0,0,1,3376,1,21502
10_2,2_inc,incongruent,entertainment,Target,3655,2052,1603,2052,0,0,0,0,0,1,3376,1,21502
10_2,2_inc,incongruent,entertainment,Spillover,939,939,,939,0,0,0,0,0,1,3376,1,21502
10_2,2_inc,incongruent,entertainment,Coda,2190,1229,961,10082,0,0,1,1,0,1,3376,1,21502
10_2,4_inc,incongruent,entertainment,Context,10219,9888,331,9888,1,1,0,0,0,0,5901,1,15685
10_2,4_inc,incongruent,entertainment,Target,2302,2302,,2302,0,0,0,0,0,0,5901,1,15685
10_2,4_inc,incongruent,entertainment,Spillover,1677,1677,,1677,0,0,0,0,0,0,5901,1,15685
10_2,4_inc,incongruent,entertainment,Coda,1487,1487,,1818,0,0,1,1,0,0,5901,1,15685
10_2,5_cong,congruent,entertainment,Context,11239,10676,563,10676,1,1,0,0,0,1,4296,1,16267
10_2,5_cong,congruent,entertainment,Target,991,991,,991,0,0,0,0,0,1,4296,1,16267
10_2,5_cong,congruent,entertainment,Spillover,2511,2511,,2511,0,0,0,0,0,1,4296,1,16267
10_2,5_cong,congruent,entertainment,Coda,1526,1526,,2089,0,0,1,1,0,1,4296,1,16267
10_2,1_cong,congruent,entertainment,Context,8256,8256,,8256,0,0,0,0,0,1,3833,1,12610
10_2,1_cong,congruent,entertainment,Target,1232,1232,,1232,0,0,0,0,0,1,3833,1,12610
10_2,1_cong,congruent,entertainment,Spillover,1605,1605,,1605,0,0,0,0,0,1,3833,1,12610
10_2,1_cong,congruent,entertainment,Coda,1517,1517,,1517,0,0,0,0,0,1,3833,1,12610
10_2,7_cong,congruent,entertainment,Context,7167,7167,,7167,0,0,0,0,0,1,8270,1,11041
10_2,7_cong,congruent,entertainment,Target,1195,1195,,1195,0,0,0,0,0,1,8270,1,11041
10_2,7_cong,congruent,entertainment,Spillover,1324,1324,,1324,0,0,0,0,0,1,8270,1,11041
10_2,7_cong,congruent,entertainment,Coda,1355,1355,,1355,0,0,0,0,0,1,8270,1,11041
10_2,14_inc,incongruent,fact_check,Context,8682,5346,2025,5346,1,2,0,0,0,1,3619,2,13171
10_2,14_inc,incongruent,fact_check,Target,1716,267,1449,3741,0,0,1,1,0,1,3619,2,13171
10_2,14_inc,incongruent,fact_check,Spillover,1503,1503,,1503,0,0,0,0,0,1,3619,2,13171
10_2,14_inc,incongruent,fact_check,Coda,1270,1270,,2581,0,0,1,1,0,1,3619,2,13171
10_2,16_inc,incongruent,fact_check,Context,11958,11588,370,11588,1,1,0,0,0,1,4619,2,16520
10_2,16_inc,incongruent,fact_check,Target,2352,211,2141,2722,0,0,1,1,0,1,4619,2,16520
10_2,16_inc,incongruent,fact_check,Spillover,1345,1345,,1345,0,0,0,0,0,1,4619,2,16520
10_2,16_inc,incongruent,fact_check,Coda,865,865,,865,0,0,0,0,0,1,4619,2,16520
10_2,12_inc,incongruent,fact_check,Context,7995,7995,,7995,0,0,0,0,0,1,3368,2,12907
10_2,12_inc,incongruent,fact_check,Target,1896,1896,,1896,0,0,0,0,0,1,3368,2,12907
10_2,12_inc,incongruent,fact_check,Spillover,1580,1580,,1580,0,0,0,0,0,1,3368,2,12907
10_2,12_inc,incongruent,fact_check,Coda,1436,1436,,1436,0,0,0,0,0,1,3368,2,12907
10_2,19_cong,congruent,fact_check,Context,9379,8903,184,8903,1,2,0,0,0,1,3416,2,13384
10_2,19_cong,congruent,fact_check,Target,1229,127,308,1705,0,0,1,2,0,1,3416,2,13384
10_2,19_cong,congruent,fact_check,Spillover,1470,1470,,1470,0,0,0,0,0,1,3416,2,13384
10_2,19_cong,congruent,fact_check,Coda,1306,1306,,1306,0,0,0,0,0,1,3416,2,13384
10_2,13_cong,congruent,fact_check,Context,9061,9061,,9061,0,0,0,0,0,1,5630,2,13249
10_2,13_cong,congruent,fact_check,Target,959,859,100,859,1,1,0,0,0,1,5630,2,13249
10_2,13_cong,congruent,fact_check,Spillover,1359,92,1267,1459,0,0,1,1,0,1,5630,2,13249
10_2,13_cong,congruent,fact_check,Coda,1870,1870,,1870,0,0,0,0,0,1,5630,2,13249
10_2,18_inc,incongruent,fact_check,Context,8959,8640,319,8640,1,1,0,0,0,1,7537,2,13289
10_2,18_inc,incongruent,fact_check,Target,1848,1848,,1848,0,0,0,0,0,1,7537,2,13289
10_2,18_inc,incongruent,fact_check,Spillover,1347,1347,,1347,0,0,0,0,0,1,7537,2,13289
10_2,18_inc,incongruent,fact_check,Coda,1135,1135,,1454,0,0,1,1,0,1,7537,2,13289
10_2,11_cong,congruent,fact_check,Context,9329,8387,942,8387,1,1,0,0,0,1,6229,2,14007
10_2,11_cong,congruent,fact_check,Target,2259,2259,,2259,0,0,0,0,0,1,6229,2,14007
10_2,11_cong,congruent,fact_check,Spillover,1223,1223,,1223,0,0,0,0,0,1,6229,2,14007
10_2,11_cong,congruent,fact_check,Coda,1196,1196,,2138,0,0,1,1,0,1,6229,2,14007
10_2,17_cong,congruent,fact_check,Context,9483,9483,,9483,0,0,0,0,0,1,6419,2,15501
10_2,17_cong,congruent,fact_check,Target,1894,1894,,1894,0,0,0,0,0,1,6419,2,15501
10_2,17_cong,congruent,fact_check,Spillover,1630,1405,225,1405,1,1,0,0,0,1,6419,2,15501
10_2,17_cong,congruent,fact_check,Coda,2494,81,2413,2719,0,0,1,1,0,1,6419,2,15501
10_2,15_cong,congruent,fact_check,Context,7510,7510,,7510,0,0,0,0,0,1,3268,2,12148
10_2,15_cong,congruent,fact_check,Target,1437,1437,,1437,0,0,0,0,0,1,3268,2,12148
10_2,15_cong,congruent,fact_check,Spillover,1683,1683,,1683,0,0,0,0,0,1,3268,2,12148
10_2,15_cong,congruent,fact_check,Coda,1518,1518,,1518,0,0,0,0,0,1,3268,2,12148
11_1,1_inc,incongruent,fact_check,Context,18053,874,14537,15411,1,5,0,0,0,1,4836,UNDEFINED,31413
11_1,1_inc,incongruent,fact_check,Target,3905,903,835,4135,1,1,1,2,0,1,4836,UNDEFINED,31413
11_1,1_inc,incongruent,fact_check,Spillover,6285,2679,228,2679,1,5,0,0,0,1,4836,UNDEFINED,31413
11_1,1_inc,incongruent,fact_check,Coda,2808,103,1554,8826,0,0,1,6,0,1,4836,UNDEFINED,31413
11_1,9_inc,incongruent,fact_check,Context,20049,11840,808,11840,1,7,0,0,0,1,30006,1,27332
11_1,9_inc,incongruent,fact_check,Target,3998,1360,576,3957,1,3,1,2,0,1,30006,1,27332
11_1,9_inc,incongruent,fact_check,Spillover,2835,838,828,7595,0,0,1,3,0,1,30006,1,27332
11_1,9_inc,incongruent,fact_check,Coda,450,450,,3940,0,0,1,1,0,1,30006,1,27332
11_1,4_cong,congruent,fact_check,Context,12576,9582,127,9582,1,4,0,0,0,1,5871,1,22642
11_1,4_cong,congruent,fact_check,Target,5115,2814,448,2814,1,7,0,0,1,1,5871,1,22642
11_1,4_cong,congruent,fact_check,Spillover,2843,273,830,5296,0,0,1,3,0,1,5871,1,22642
11_1,4_cong,congruent,fact_check,Coda,2108,1044,320,7764,0,0,1,3,0,1,5871,1,22642
11_1,5_inc,incongruent,fact_check,Context,16670,9370,358,9370,1,9,0,0,0,1,4806,1,25022
11_1,5_inc,incongruent,fact_check,Target,4468,2518,155,3031,0,0,1,1,0,1,4806,1,25022
11_1,5_inc,incongruent,fact_check,Spillover,2154,1409,202,1409,1,1,0,0,0,1,4806,1,25022
11_1,5_inc,incongruent,fact_check,Coda,1730,1730,,11212,0,0,1,1,0,1,4806,1,25022
11_1,3_inc,incongruent,fact_check,Context,12546,11526,234,11526,1,5,0,0,0,1,3122,1,21263
11_1,3_inc,incongruent,fact_check,Target,4279,2436,493,2670,1,2,1,1,0,1,3122,1,21263
11_1,3_inc,incongruent,fact_check,Spillover,2308,285,418,1692,1,2,1,2,0,1,3122,1,21263
11_1,3_inc,incongruent,fact_check,Coda,2130,1097,360,5375,0,0,1,3,0,1,3122,1,21263
11_1,10_cong,congruent,fact_check,Context,9948,7943,731,7943,1,2,0,0,0,1,4140,1,15174
11_1,10_cong,congruent,fact_check,Target,2237,2102,135,2102,1,1,0,0,1,1,4140,1,15174
11_1,10_cong,congruent,fact_check,Spillover,1776,232,1292,4357,1,1,1,1,0,1,4140,1,15174
11_1,10_cong,congruent,fact_check,Coda,1213,118,1095,2874,0,0,1,2,0,1,4140,1,15174
11_1,2_cong,congruent,fact_check,Context,18565,13559,331,13559,1,8,0,0,0,1,3800,1,24192
11_1,2_cong,congruent,fact_check,Target,3288,418,420,1169,1,1,1,1,0,1,3800,1,24192
11_1,2_cong,congruent,fact_check,Spillover,1325,653,268,2069,1,1,1,2,0,1,3800,1,24192
11_1,2_cong,congruent,fact_check,Coda,1014,403,233,7395,0,0,1,4,0,1,3800,1,24192
11_1,6_cong,congruent,fact_check,Context,7480,4414,102,4414,1,5,0,0,0,1,2600,1,18232
11_1,6_cong,congruent,fact_check,Target,4616,777,592,1471,1,1,1,1,0,1,2600,1,18232
11_1,6_cong,congruent,fact_check,Spillover,3050,1386,134,1386,1,2,0,0,0,1,2600,1,18232
11_1,6_cong,congruent,fact_check,Coda,3086,190,589,10961,0,0,1,4,0,1,2600,1,18232
11_1,8_cong,congruent,fact_check,Context,11847,6595,2286,6595,1,3,0,0,0,1,2703,1,17816
11_1,8_cong,congruent,fact_check,Target,2236,414,929,3629,1,1,1,1,0,1,2703,1,17816
11_1,8_cong,congruent,fact_check,Spillover,1915,1915,,1915,0,0,0,0,0,1,2703,1,17816
11_1,8_cong,congruent,fact_check,Coda,1818,1818,,5677,0,0,1,1,0,1,2703,1,17816
11_1,7_inc,incongruent,fact_check,Context,11250,9256,429,9256,1,3,0,0,0,1,14477,1,17021
11_1,7_inc,incongruent,fact_check,Target,1332,979,353,979,1,1,0,0,0,1,14477,1,17021
11_1,7_inc,incongruent,fact_check,Spillover,2799,130,253,1760,1,1,1,3,0,1,14477,1,17021
11_1,7_inc,incongruent,fact_check,Coda,1640,342,1092,5026,0,0,1,2,0,1,14477,1,17021
11_1,14_cong,congruent,entertainment,Context,11538,7030,147,7030,1,2,0,0,0,1,3280,2,16693
11_1,14_cong,congruent,entertainment,Target,1597,861,266,1274,1,1,1,1,0,1,3280,2,16693
11_1,14_cong,congruent,entertainment,Spillover,2113,2113,,2583,0,0,1,1,0,1,3280,2,16693
11_1,14_cong,congruent,entertainment,Coda,1445,1445,,5806,0,0,1,1,0,1,3280,2,16693
11_1,15_inc,incongruent,entertainment,Context,10318,5527,781,5527,1,5,0,0,0,1,7406,2,16718
11_1,15_inc,incongruent,entertainment,Target,1630,1062,166,2009,1,1,1,1,0,1,7406,2,16718
11_1,15_inc,incongruent,entertainment,Spillover,2891,520,661,520,1,1,0,0,0,1,7406,2,16718
11_1,15_inc,incongruent,entertainment,Coda,1879,165,93,8662,0,0,1,3,0,1,7406,2,16718
11_1,11_inc,incongruent,entertainment,Context,12139,10180,917,10180,1,3,0,0,0,0,5272,2,13808
11_1,11_inc,incongruent,entertainment,Target,1063,99,179,2162,0,0,1,2,0,0,5272,2,13808
11_1,11_inc,incongruent,entertainment,Spillover,0,.,,.,.,.,.,.,1,0,5272,2,13808
11_1,11_inc,incongruent,entertainment,Coda,606,606,,1466,0,0,1,1,0,0,5272,2,13808
11_1,16_cong,congruent,entertainment,Context,11408,10524,884,10524,1,1,0,0,0,1,2965,2,12399
11_1,16_cong,congruent,entertainment,Target,991,991,,1875,0,0,1,1,0,1,2965,2,12399
11_1,16_cong,congruent,entertainment,Spillover,0,.,,.,.,.,.,.,1,1,2965,2,12399
11_1,16_cong,congruent,entertainment,Coda,0,.,,.,.,.,.,.,1,1,2965,2,12399
11_1,13_inc,incongruent,entertainment,Context,8450,6836,215,6836,1,2,0,0,0,0,5750,2,13378
11_1,13_inc,incongruent,entertainment,Target,1814,1381,433,1381,0,0,0,0,0,0,5750,2,13378
11_1,13_inc,incongruent,entertainment,Spillover,1535,1535,,1535,0,0,0,0,0,0,5750,2,13378
11_1,13_inc,incongruent,entertainment,Coda,1579,1579,,3626,0,0,1,1,0,0,5750,2,13378
11_1,19_inc,incongruent,entertainment,Context,11859,9840,796,9840,1,4,0,0,0,1,3172,2,16891
11_1,19_inc,incongruent,entertainment,Target,1958,1322,203,2118,1,1,1,1,0,1,3172,2,16891
11_1,19_inc,incongruent,entertainment,Spillover,1889,366,1273,1842,0,0,1,1,0,1,3172,2,16891
11_1,19_inc,incongruent,entertainment,Coda,1185,1185,,3091,0,0,1,1,0,1,3172,2,16891
11_1,18_cong,congruent,entertainment,Context,8891,8618,273,8618,1,1,0,0,0,1,3218,2,13704
11_1,18_cong,congruent,entertainment,Target,1848,1128,720,1128,1,1,0,0,0,1,3218,2,13704
11_1,18_cong,congruent,entertainment,Spillover,1710,768,263,2024,1,1,1,1,0,1,3218,2,13704
11_1,18_cong,congruent,entertainment,Coda,1255,210,1045,1934,0,0,1,1,0,1,3218,2,13704
11_1,17_inc,incongruent,entertainment,Context,10793,8743,1481,8743,1,2,0,0,0,1,3157,2,13896
11_1,17_inc,incongruent,entertainment,Target,2604,1220,1292,3993,0,0,1,1,0,1,3157,2,13896
11_1,17_inc,incongruent,entertainment,Spillover,499,499,,1160,0,0,1,1,0,1,3157,2,13896
11_1,17_inc,incongruent,entertainment,Coda,0,.,,.,.,.,.,.,1,1,3157,2,13896
11_1,20_cong,congruent,entertainment,Context,8074,6978,777,6978,1,2,0,0,0,1,2879,2,10267
11_1,20_cong,congruent,entertainment,Target,857,206,313,206,1,3,0,0,0,1,2879,2,10267
11_1,20_cong,congruent,entertainment,Spillover,1007,438,173,2273,0,0,1,2,0,1,2879,2,10267
11_1,20_cong,congruent,entertainment,Coda,329,329,,810,0,0,1,1,0,1,2879,2,10267
11_1,12_cong,congruent,entertainment,Context,7921,6444,333,6444,1,3,0,0,0,1,3289,2,12735
11_1,12_cong,congruent,entertainment,Target,1056,736,95,736,1,1,0,0,0,1,3289,2,12735
11_1,12_cong,congruent,entertainment,Spillover,2320,89,1080,1774,1,2,1,2,0,1,3289,2,12735
11_1,12_cong,congruent,entertainment,Coda,1350,205,550,3693,0,0,1,3,0,1,3289,2,12735
14_2,2_inc,incongruent,entertainment,Context,18564,13844,4720,13844,1,1,0,0,0,1,4722,1,28890
14_2,2_inc,incongruent,entertainment,Target,2756,1343,1413,1343,0,0,0,0,0,1,4722,1,28890
14_2,2_inc,incongruent,entertainment,Spillover,4146,1833,2313,1833,0,0,0,0,0,1,4722,1,28890
14_2,2_inc,incongruent,entertainment,Coda,3424,1698,1726,11870,0,0,1,1,0,1,4722,1,28890
14_2,4_inc,incongruent,entertainment,Context,13302,11835,1467,11835,1,1,0,0,0,0,3651,1,18720
14_2,4_inc,incongruent,entertainment,Target,2385,2385,,2385,0,0,0,0,0,0,3651,1,18720
14_2,4_inc,incongruent,entertainment,Spillover,1486,1486,,1486,0,0,0,0,0,0,3651,1,18720
14_2,4_inc,incongruent,entertainment,Coda,1547,1547,,3014,0,0,1,1,0,0,3651,1,18720
14_2,9_cong,congruent,entertainment,Context,10642,10442,200,10442,1,1,0,0,0,1,5520,1,17382
14_2,9_cong,congruent,entertainment,Target,1971,1884,87,1884,1,1,0,0,0,1,5520,1,17382
14_2,9_cong,congruent,entertainment,Spillover,1794,1546,248,1881,0,0,1,1,0,1,5520,1,17382
14_2,9_cong,congruent,entertainment,Coda,2975,2975,,3175,0,0,1,1,0,1,5520,1,17382
14_2,8_inc,incongruent,entertainment,Context,10678,10678,,10678,0,0,0,0,0,0,4308,1,16379
14_2,8_inc,incongruent,entertainment,Target,2151,2151,,2151,0,0,0,0,0,0,4308,1,16379
14_2,8_inc,incongruent,entertainment,Spillover,1528,1528,,1528,0,0,0,0,0,0,4308,1,16379
14_2,8_inc,incongruent,entertainment,Coda,2022,2022,,2022,0,0,0,0,0,0,4308,1,16379
14_2,7_cong,congruent,entertainment,Context,11901,11796,105,11796,1,1,0,0,0,1,5010,1,16833
14_2,7_cong,congruent,entertainment,Target,1385,905,480,1490,0,0,1,1,0,1,5010,1,16833
14_2,7_cong,congruent,entertainment,Spillover,1604,1604,,1604,0,0,0,0,0,1,5010,1,16833
14_2,7_cong,congruent,entertainment,Coda,1943,1943,,1943,0,0,0,0,0,1,5010,1,16833
14_2,3_cong,congruent,entertainment,Context,9550,9550,,9550,0,0,0,0,0,1,4077,1,14883
14_2,3_cong,congruent,entertainment,Target,1737,1443,294,1443,1,1,0,0,0,1,4077,1,14883
14_2,3_cong,congruent,entertainment,Spillover,1691,290,1401,1985,0,0,1,1,0,1,4077,1,14883
14_2,3_cong,congruent,entertainment,Coda,1905,1905,,1905,0,0,0,0,0,1,4077,1,14883
14_2,5_cong,congruent,entertainment,Context,10137,7708,2316,7708,1,2,0,0,0,1,3698,1,15370
14_2,5_cong,congruent,entertainment,Target,1615,88,271,3933,1,1,1,2,0,1,3698,1,15370
14_2,5_cong,congruent,entertainment,Spillover,1807,1361,446,1918,0,0,1,1,0,1,3698,1,15370
14_2,5_cong,congruent,entertainment,Coda,1811,1811,,1811,0,0,0,0,0,1,3698,1,15370
14_2,1_cong,congruent,entertainment,Context,8439,8439,,8439,0,0,0,0,0,1,3841,1,14863
14_2,1_cong,congruent,entertainment,Target,1392,1392,,1392,0,0,0,0,0,1,3841,1,14863
14_2,1_cong,congruent,entertainment,Spillover,3453,2325,1128,2325,1,1,0,0,0,1,3841,1,14863
14_2,1_cong,congruent,entertainment,Coda,1579,1579,,2707,0,0,1,1,0,1,3841,1,14863
14_2,10_inc,incongruent,entertainment,Context,8940,8762,178,8762,1,1,0,0,0,0,5118,1,16292
14_2,10_inc,incongruent,entertainment,Target,3403,1778,1625,1778,0,0,0,0,0,0,5118,1,16292
14_2,10_inc,incongruent,entertainment,Spillover,1967,370,1597,3770,0,0,1,1,0,0,5118,1,16292
14_2,10_inc,incongruent,entertainment,Coda,1982,1982,,1982,0,0,0,0,0,0,5118,1,16292
14_2,6_inc,incongruent,entertainment,Context,9481,9262,219,9262,1,1,0,0,0,1,5463,1,17280
14_2,6_inc,incongruent,entertainment,Target,3680,2660,1020,2660,0,0,0,0,0,1,5463,1,17280
14_2,6_inc,incongruent,entertainment,Spillover,1742,208,1534,2981,0,0,1,1,0,1,5463,1,17280
14_2,6_inc,incongruent,entertainment,Coda,2377,2377,,2377,0,0,0,0,0,1,5463,1,17280
14_2,18_inc,incongruent,fact_check,Context,8974,8891,83,8891,1,1,0,0,0,1,3750,2,14732
14_2,18_inc,incongruent,fact_check,Target,1708,781,927,1791,0,0,1,1,0,1,3750,2,14732
14_2,18_inc,incongruent,fact_check,Spillover,2480,2480,,2480,0,0,0,0,0,1,3750,2,14732
14_2,18_inc,incongruent,fact_check,Coda,1570,1570,,1570,0,0,0,0,0,1,3750,2,14732
14_2,14_inc,incongruent,fact_check,Context,16182,16039,143,16039,1,1,0,0,0,1,3004,2,24092
14_2,14_inc,incongruent,fact_check,Target,3687,1895,1548,1895,1,1,0,0,0,1,3004,2,24092
14_2,14_inc,incongruent,fact_check,Spillover,2343,488,1855,4278,0,0,1,2,0,1,3004,2,24092
14_2,14_inc,incongruent,fact_check,Coda,1880,1880,,1880,0,0,0,0,0,1,3004,2,24092
14_2,17_cong,congruent,fact_check,Context,16125,9956,2063,9956,1,2,0,0,0,1,3586,2,32895
14_2,17_cong,congruent,fact_check,Target,3785,1647,698,1647,1,1,0,0,0,1,3586,2,32895
14_2,17_cong,congruent,fact_check,Spillover,5520,3181,508,5752,0,0,1,1,0,1,3586,2,32895
14_2,17_cong,congruent,fact_check,Coda,4566,394,591,12641,0,0,1,1,0,1,3586,2,32895
14_2,11_cong,congruent,fact_check,Context,12497,11970,527,11970,1,1,0,0,0,1,1986,2,16913
14_2,11_cong,congruent,fact_check,Target,2002,1502,500,1502,0,0,0,0,0,1,1986,2,16913
14_2,11_cong,congruent,fact_check,Spillover,994,651,343,1678,1,1,1,1,0,1,1986,2,16913
14_2,11_cong,congruent,fact_check,Coda,1420,1027,393,1763,0,0,1,1,0,1,1986,2,16913
14_2,19_cong,congruent,fact_check,Context,11404,10969,173,10969,1,2,0,0,0,1,6181,2,17175
14_2,19_cong,congruent,fact_check,Target,1416,653,398,1224,1,2,1,1,0,1,6181,2,17175
14_2,19_cong,congruent,fact_check,Spillover,2532,1866,666,2655,0,0,1,1,0,1,6181,2,17175
14_2,19_cong,congruent,fact_check,Coda,1823,166,1657,2327,0,0,1,2,0,1,6181,2,17175
14_2,13_cong,congruent,fact_check,Context,9602,9602,,9602,0,0,0,0,0,1,3157,2,14711
14_2,13_cong,congruent,fact_check,Target,1936,1936,,1936,0,0,0,0,0,1,3157,2,14711
14_2,13_cong,congruent,fact_check,Spillover,1302,1302,,1302,0,0,0,0,0,1,3157,2,14711
14_2,13_cong,congruent,fact_check,Coda,1871,1871,,1871,0,0,0,0,0,1,3157,2,14711
14_2,16_inc,incongruent,fact_check,Context,13851,13851,,13851,0,0,0,0,0,0,2738,2,17992
14_2,16_inc,incongruent,fact_check,Target,1467,1467,,1467,0,0,0,0,0,0,2738,2,17992
14_2,16_inc,incongruent,fact_check,Spillover,1385,1385,,1385,0,0,0,0,0,0,2738,2,17992
14_2,16_inc,incongruent,fact_check,Coda,1289,1289,,1289,0,0,0,0,0,0,2738,2,17992
14_2,12_inc,incongruent,fact_check,Context,8940,8764,176,8764,1,1,0,0,0,1,3327,2,15723
14_2,12_inc,incongruent,fact_check,Target,3005,1678,1327,3181,0,0,1,1,0,1,3327,2,15723
14_2,12_inc,incongruent,fact_check,Spillover,1616,1616,,1616,0,0,0,0,0,1,3327,2,15723
14_2,12_inc,incongruent,fact_check,Coda,2162,2162,,2162,0,0,0,0,0,1,3327,2,15723
14_2,15_cong,congruent,fact_check,Context,8897,8897,,8897,0,0,0,0,0,1,2830,2,13887
14_2,15_cong,congruent,fact_check,Target,1629,1629,,1629,0,0,0,0,0,1,2830,2,13887
14_2,15_cong,congruent,fact_check,Spillover,1757,1757,,1757,0,0,0,0,0,1,2830,2,13887
14_2,15_cong,congruent,fact_check,Coda,1604,1604,,1604,0,0,0,0,0,1,2830,2,13887
14_2,20_inc,incongruent,fact_check,Context,11023,10095,778,10095,1,2,0,0,0,1,2902,2,17572
14_2,20_inc,incongruent,fact_check,Target,2897,238,2659,3675,0,0,1,1,0,1,2902,2,17572
14_2,20_inc,incongruent,fact_check,Spillover,1941,1941,,1941,0,0,0,0,0,1,2902,2,17572
14_2,20_inc,incongruent,fact_check,Coda,1711,1711,,1861,0,0,1,1,0,1,2902,2,17572
15_1,1_inc,incongruent,fact_check,Context,17516,9457,8059,9457,1,1,0,0,0,0,7468,UNDEFINED,28167
15_1,1_inc,incongruent,fact_check,Target,2660,1558,1102,1558,0,0,0,0,0,0,7468,UNDEFINED,28167
15_1,1_inc,incongruent,fact_check,Spillover,4445,3454,120,3454,1,1,0,0,0,0,7468,UNDEFINED,28167
15_1,1_inc,incongruent,fact_check,Coda,3546,1809,1737,13698,0,0,1,1,0,0,7468,UNDEFINED,28167
15_1,7_inc,incongruent,fact_check,Context,9898,9898,,9898,0,0,0,0,0,1,5095,1,17185
15_1,7_inc,incongruent,fact_check,Target,1831,1640,191,1640,1,1,0,0,0,1,5095,1,17185
15_1,7_inc,incongruent,fact_check,Spillover,3396,2735,661,2735,0,0,0,0,0,1,5095,1,17185
15_1,7_inc,incongruent,fact_check,Coda,2060,2060,,2912,0,0,1,1,0,1,5095,1,17185
15_1,9_inc,incongruent,fact_check,Context,8723,8723,,8723,0,0,0,0,0,0,4038,1,14891
15_1,9_inc,incongruent,fact_check,Target,1372,1372,,1372,0,0,0,0,0,0,4038,1,14891
15_1,9_inc,incongruent,fact_check,Spillover,1748,1331,417,1331,1,1,0,0,0,0,4038,1,14891
15_1,9_inc,incongruent,fact_check,Coda,3048,2358,690,3465,0,0,1,1,0,0,4038,1,14891
15_1,10_cong,congruent,fact_check,Context,12737,8528,4209,8528,1,1,0,0,0,1,4580,1,19239
15_1,10_cong,congruent,fact_check,Target,2903,1975,928,1975,0,0,0,0,0,1,4580,1,19239
15_1,10_cong,congruent,fact_check,Spillover,2071,1258,813,1258,0,0,0,0,0,1,4580,1,19239
15_1,10_cong,congruent,fact_check,Coda,1528,1136,392,7478,0,0,1,1,0,1,4580,1,19239
15_1,8_cong,congruent,fact_check,Context,19181,9718,7586,9718,1,3,0,0,0,1,4065,1,29872
15_1,8_cong,congruent,fact_check,Target,3953,252,1283,1535,0,0,0,0,0,1,4065,1,29872
15_1,8_cong,congruent,fact_check,Spillover,3030,1509,1521,1509,0,0,0,0,0,1,4065,1,29872
15_1,8_cong,congruent,fact_check,Coda,3410,1832,1578,16812,0,0,1,2,0,1,4065,1,29872
15_1,5_inc,incongruent,fact_check,Context,14376,9583,4793,9583,1,1,0,0,0,1,4038,1,23250
15_1,5_inc,incongruent,fact_check,Target,3151,1552,1599,1552,0,0,0,0,0,1,4038,1,23250
15_1,5_inc,incongruent,fact_check,Spillover,3025,1750,1275,1750,0,0,0,0,0,1,4038,1,23250
15_1,5_inc,incongruent,fact_check,Coda,2698,1744,954,10365,0,0,1,1,0,1,4038,1,23250
15_1,3_inc,incongruent,fact_check,Context,18212,3739,2745,10627,1,1,0,0,0,1,3024,1,26721
15_1,3_inc,incongruent,fact_check,Target,2625,1373,1252,1373,0,0,0,0,0,1,3024,1,26721
15_1,3_inc,incongruent,fact_check,Spillover,2741,1458,1283,1458,0,0,0,0,0,1,3024,1,26721
15_1,3_inc,incongruent,fact_check,Coda,2851,1669,1182,12971,0,0,1,1,0,1,3024,1,26721
15_1,4_cong,congruent,fact_check,Context,14201,4444,4565,9009,1,1,0,0,0,1,4219,1,24209
15_1,4_cong,congruent,fact_check,Target,4270,2475,1795,2475,0,0,0,0,0,1,4219,1,24209
15_1,4_cong,congruent,fact_check,Spillover,3103,1942,1161,1942,0,0,0,0,0,1,4219,1,24209
15_1,4_cong,congruent,fact_check,Coda,2507,1516,991,10655,0,0,1,1,0,1,4219,1,24209
15_1,2_cong,congruent,fact_check,Context,22768,375,7274,14631,1,1,0,0,0,1,4400,1,30661
15_1,2_cong,congruent,fact_check,Target,1793,1227,566,1227,0,0,0,0,0,1,4400,1,30661
15_1,2_cong,congruent,fact_check,Spillover,2426,1730,696,1730,0,0,0,0,0,1,4400,1,30661
15_1,2_cong,congruent,fact_check,Coda,3227,2447,780,12626,0,0,1,1,0,1,4400,1,30661
15_1,12_cong,congruent,entertainment,Context,17309,10861,1526,10861,1,2,0,0,0,0,6836,2,25525
15_1,12_cong,congruent,entertainment,Target,1908,1167,741,1167,0,0,0,0,0,0,6836,2,25525
15_1,12_cong,congruent,entertainment,Spillover,3122,952,896,1848,0,0,0,0,0,0,6836,2,25525
15_1,12_cong,congruent,entertainment,Coda,2498,1171,1231,10961,0,0,1,2,0,0,6836,2,25525
15_1,20_cong,congruent,entertainment,Context,15028,9930,4939,9930,1,2,0,0,0,1,6481,2,29942
15_1,20_cong,congruent,entertainment,Target,3953,315,1008,1323,1,2,0,0,0,1,6481,2,29942
15_1,20_cong,congruent,entertainment,Spillover,5386,2888,162,2888,1,1,0,0,0,1,6481,2,29942
15_1,20_cong,congruent,entertainment,Coda,5480,3906,166,15706,0,0,1,3,0,1,6481,2,29942
15_1,13_inc,incongruent,entertainment,Context,10650,5200,193,5200,1,3,0,0,0,1,6409,2,22222
15_1,13_inc,incongruent,entertainment,Target,5362,1375,2178,3919,0,0,1,2,0,1,6409,2,22222
15_1,13_inc,incongruent,entertainment,Spillover,2297,1423,874,1423,0,0,0,0,0,1,6409,2,22222
15_1,13_inc,incongruent,entertainment,Coda,3913,2019,1894,11680,0,0,1,1,0,1,6409,2,22222
15_1,17_inc,incongruent,entertainment,Context,17473,8758,8507,8758,1,2,0,0,0,1,3147,2,31706
15_1,17_inc,incongruent,entertainment,Target,4023,1747,1304,1747,1,1,0,0,0,1,3147,2,31706
15_1,17_inc,incongruent,entertainment,Spillover,5414,2465,1273,2465,0,0,0,0,0,1,3147,2,31706
15_1,17_inc,incongruent,entertainment,Coda,4796,2749,2047,18736,0,0,1,1,0,1,3147,2,31706
15_1,14_cong,congruent,entertainment,Context,19748,9704,10044,9704,1,1,0,0,0,0,4233,2,33493
15_1,14_cong,congruent,entertainment,Target,3700,2060,1640,2060,0,0,0,0,0,0,4233,2,33493
15_1,14_cong,congruent,entertainment,Spillover,6525,2514,4011,2514,0,0,0,0,0,0,4233,2,33493
15_1,14_cong,congruent,entertainment,Coda,3520,1911,1609,19215,0,0,1,1,0,0,4233,2,33493
15_1,16_cong,congruent,entertainment,Context,15043,11307,3736,11307,1,1,0,0,0,1,3216,2,21686
15_1,16_cong,congruent,entertainment,Target,3337,1423,1914,1423,0,0,0,0,0,1,3216,2,21686
15_1,16_cong,congruent,entertainment,Spillover,1955,1328,627,1328,0,0,0,0,0,1,3216,2,21686
15_1,16_cong,congruent,entertainment,Coda,1351,1351,,7628,0,0,1,1,0,1,3216,2,21686
15_1,18_cong,congruent,entertainment,Context,11336,10779,557,10779,1,1,0,0,0,1,2322,2,15114
15_1,18_cong,congruent,entertainment,Target,1649,1649,,1649,0,0,0,0,0,1,2322,2,15114
15_1,18_cong,congruent,entertainment,Spillover,1072,1072,,1072,0,0,0,0,0,1,2322,2,15114
15_1,18_cong,congruent,entertainment,Coda,1057,1057,,1614,0,0,1,1,0,1,2322,2,15114
15_1,15_inc,incongruent,entertainment,Context,7217,7217,,7217,0,0,0,0,0,0,8950,2,16440
15_1,15_inc,incongruent,entertainment,Target,1928,1928,,1928,0,0,0,0,0,0,8950,2,16440
15_1,15_inc,incongruent,entertainment,Spillover,4480,2638,1640,2638,1,2,0,0,0,0,8950,2,16440
15_1,15_inc,incongruent,entertainment,Coda,2815,1642,1173,4657,0,0,1,2,0,0,8950,2,16440
15_1,11_inc,incongruent,entertainment,Context,9870,7234,2636,7234,1,1,0,0,0,0,2523,2,21698
15_1,11_inc,incongruent,entertainment,Target,6636,4532,2104,4532,0,0,0,0,0,0,2523,2,21698
15_1,11_inc,incongruent,entertainment,Spillover,3406,2092,1314,2092,0,0,0,0,0,0,2523,2,21698
15_1,11_inc,incongruent,entertainment,Coda,1786,1786,,7840,0,0,1,1,0,0,2523,2,21698
15_1,19_inc,incongruent,entertainment,Context,24234,11787,9698,11787,1,2,0,0,0,1,4810,2,35501
15_1,19_inc,incongruent,entertainment,Target,3975,1374,460,1374,1,1,0,0,0,1,4810,2,35501
15_1,19_inc,incongruent,entertainment,Spillover,4186,2525,1661,2985,0,0,1,1,0,1,4810,2,35501
15_1,19_inc,incongruent,entertainment,Coda,3106,1756,1350,19355,0,0,1,2,0,1,4810,2,35501
16_2,2_inc,incongruent,entertainment,Context,8093,8093,,8093,0,0,0,0,0,1,6836,1,13403
16_2,2_inc,incongruent,entertainment,Target,1962,1962,,1962,0,0,0,0,0,1,6836,1,13403
16_2,2_inc,incongruent,entertainment,Spillover,1305,1305,,1305,0,0,0,0,0,1,6836,1,13403
16_2,2_inc,incongruent,entertainment,Coda,1956,1436,520,1956,0,0,0,0,0,1,6836,1,13403
16_2,9_cong,congruent,entertainment,Context,8703,8703,,8703,0,0,0,0,0,1,4854,1,13500
16_2,9_cong,congruent,entertainment,Target,1261,1261,,1261,0,0,0,0,0,1,4854,1,13500
16_2,9_cong,congruent,entertainment,Spillover,1038,1038,,1038,0,0,0,0,0,1,4854,1,13500
16_2,9_cong,congruent,entertainment,Coda,2498,2498,,2498,0,0,0,0,0,1,4854,1,13500
16_2,1_cong,congruent,entertainment,Context,11068,10799,269,10799,1,1,0,0,0,1,4816,1,15064
16_2,1_cong,congruent,entertainment,Target,1245,1245,,1245,0,0,0,0,0,1,4816,1,15064
16_2,1_cong,congruent,entertainment,Spillover,1259,1259,,1259,0,0,0,0,0,1,4816,1,15064
16_2,1_cong,congruent,entertainment,Coda,1492,1492,,1761,0,0,1,1,0,1,4816,1,15064
16_2,5_cong,congruent,entertainment,Context,11733,7853,3880,7853,1,1,0,0,0,1,5115,1,15824
16_2,5_cong,congruent,entertainment,Target,1116,1116,,1116,0,0,0,0,0,1,5115,1,15824
16_2,5_cong,congruent,entertainment,Spillover,1400,1400,,1400,0,0,0,0,0,1,5115,1,15824
16_2,5_cong,congruent,entertainment,Coda,1575,1575,,5455,0,0,1,1,0,1,5115,1,15824
16_2,4_inc,incongruent,entertainment,Context,13710,9568,4142,9568,1,1,0,0,0,0,10203,1,19248
16_2,4_inc,incongruent,entertainment,Target,2711,1409,1302,1409,0,0,0,0,0,0,10203,1,19248
16_2,4_inc,incongruent,entertainment,Spillover,1263,357,906,6707,0,0,1,1,0,0,10203,1,19248
16_2,4_inc,incongruent,entertainment,Coda,1564,1564,,1564,0,0,0,0,0,0,10203,1,19248
16_2,10_inc,incongruent,entertainment,Context,8574,7492,214,7492,1,3,0,0,0,1,3401,1,13635
16_2,10_inc,incongruent,entertainment,Target,2982,1074,1070,2358,0,0,1,1,0,1,3401,1,13635
16_2,10_inc,incongruent,entertainment,Spillover,947,853,94,853,0,0,0,0,0,1,3401,1,13635
16_2,10_inc,incongruent,entertainment,Coda,1132,1132,,2932,0,0,1,1,0,1,3401,1,13635
16_2,6_inc,incongruent,entertainment,Context,10902,7033,3869,7033,1,1,0,0,0,0,3405,1,15635
16_2,6_inc,incongruent,entertainment,Target,2045,1348,697,1348,0,0,0,0,0,0,3405,1,15635
16_2,6_inc,incongruent,entertainment,Spillover,1090,269,821,5656,0,0,1,1,0,0,3405,1,15635
16_2,6_inc,incongruent,entertainment,Coda,1598,1598,,1598,0,0,0,0,0,0,3405,1,15635
16_2,7_cong,congruent,entertainment,Context,9181,7720,1461,7720,1,1,0,0,0,1,7386,1,12678
16_2,7_cong,congruent,entertainment,Target,1020,1020,,1020,0,0,0,0,0,1,7386,1,12678
16_2,7_cong,congruent,entertainment,Spillover,1092,1092,,1092,0,0,0,0,0,1,7386,1,12678
16_2,7_cong,congruent,entertainment,Coda,1385,1385,,2846,0,0,1,1,0,1,7386,1,12678
16_2,3_cong,congruent,entertainment,Context,9635,7779,1856,7779,1,1,0,0,0,1,3257,1,13103
16_2,3_cong,congruent,entertainment,Target,1122,1122,,1122,0,0,0,0,0,1,3257,1,13103
16_2,3_cong,congruent,entertainment,Spillover,1167,1167,,1167,0,0,0,0,0,1,3257,1,13103
16_2,3_cong,congruent,entertainment,Coda,1179,1179,,3035,0,0,1,1,0,1,3257,1,13103
16_2,8_inc,incongruent,entertainment,Context,5949,4512,1437,4512,1,1,0,0,0,0,3249,1,9876
16_2,8_inc,incongruent,entertainment,Target,1180,174,1006,2617,0,0,1,1,0,0,3249,1,9876
16_2,8_inc,incongruent,entertainment,Spillover,1030,1030,,1030,0,0,0,0,0,0,3249,1,9876
16_2,8_inc,incongruent,entertainment,Coda,1717,1717,,1717,0,0,0,0,0,0,3249,1,9876
16_2,16_inc,incongruent,fact_check,Context,10170,8467,1188,8467,1,3,0,0,0,0,4381,2,14968
16_2,16_inc,incongruent,fact_check,Target,2587,1314,1273,3775,0,0,1,1,0,0,4381,2,14968
16_2,16_inc,incongruent,fact_check,Spillover,953,561,392,1044,0,0,1,1,0,0,4381,2,14968
16_2,16_inc,incongruent,fact_check,Coda,1258,1104,154,1682,0,0,1,1,0,0,4381,2,14968
16_2,13_cong,congruent,fact_check,Context,6280,6113,167,6113,1,1,0,0,0,1,4259,2,11438
16_2,13_cong,congruent,fact_check,Target,2601,1862,92,1862,1,1,0,0,0,1,4259,2,11438
16_2,13_cong,congruent,fact_check,Spillover,1131,995,136,995,1,1,0,0,0,1,4259,2,11438
16_2,13_cong,congruent,fact_check,Coda,1426,95,1331,2468,0,0,1,2,0,1,4259,2,11438
16_2,20_inc,incongruent,fact_check,Context,6390,5854,536,5854,1,1,0,0,0,1,4467,2,11612
16_2,20_inc,incongruent,fact_check,Target,2669,115,2554,3205,0,0,1,1,0,1,4467,2,11612
16_2,20_inc,incongruent,fact_check,Spillover,1135,1135,,1135,0,0,0,0,0,1,4467,2,11612
16_2,20_inc,incongruent,fact_check,Coda,1418,1418,,1418,0,0,0,0,0,1,4467,2,11612
16_2,11_cong,congruent,fact_check,Context,8927,7714,724,7714,1,2,0,0,0,1,5153,2,14364
16_2,11_cong,congruent,fact_check,Target,3547,2480,146,2480,1,2,0,0,0,1,5153,2,14364
16_2,11_cong,congruent,fact_check,Spillover,1417,337,1080,2287,0,0,1,2,0,1,5153,2,14364
16_2,11_cong,congruent,fact_check,Coda,473,473,,1883,0,0,1,1,0,1,5153,2,14364
16_2,15_cong,congruent,fact_check,Context,10193,7654,2539,7654,1,1,0,0,0,1,3478,2,14186
16_2,15_cong,congruent,fact_check,Target,1535,1535,,1535,0,0,0,0,0,1,3478,2,14186
16_2,15_cong,congruent,fact_check,Spillover,1455,1455,,1455,0,0,0,0,0,1,3478,2,14186
16_2,15_cong,congruent,fact_check,Coda,1003,1003,,3542,0,0,1,1,0,1,3478,2,14186
16_2,19_cong,congruent,fact_check,Context,8934,7859,1075,7859,1,1,0,0,0,1,3609,2,11941
16_2,19_cong,congruent,fact_check,Target,784,784,,784,0,0,0,0,0,1,3609,2,11941
16_2,19_cong,congruent,fact_check,Spillover,1314,1314,,1314,0,0,0,0,0,1,3609,2,11941
16_2,19_cong,congruent,fact_check,Coda,909,909,,1984,0,0,1,1,0,1,3609,2,11941
16_2,14_inc,incongruent,fact_check,Context,7022,7022,,7022,0,0,0,0,0,1,3381,2,10661
16_2,14_inc,incongruent,fact_check,Target,1219,1219,,1219,0,0,0,0,0,1,3381,2,10661
16_2,14_inc,incongruent,fact_check,Spillover,1190,1190,,1190,0,0,0,0,0,1,3381,2,10661
16_2,14_inc,incongruent,fact_check,Coda,1230,1230,,1230,0,0,0,0,0,1,3381,2,10661
16_2,17_cong,congruent,fact_check,Context,8072,7973,99,7973,1,1,0,0,0,1,10609,2,12867
16_2,17_cong,congruent,fact_check,Target,1386,1155,231,1155,0,0,0,0,0,1,10609,2,12867
16_2,17_cong,congruent,fact_check,Spillover,1379,1379,,1379,0,0,0,0,0,1,10609,2,12867
16_2,17_cong,congruent,fact_check,Coda,2030,2030,,2360,0,0,1,1,0,1,10609,2,12867
16_2,12_inc,incongruent,fact_check,Context,8285,8187,98,8187,1,1,0,0,0,1,2953,2,11570
16_2,12_inc,incongruent,fact_check,Target,1169,1169,,1169,0,0,0,0,0,1,2953,2,11570
16_2,12_inc,incongruent,fact_check,Spillover,1176,403,773,1274,0,0,1,1,0,1,2953,2,11570
16_2,12_inc,incongruent,fact_check,Coda,940,940,,940,0,0,0,0,0,1,2953,2,11570
16_2,18_inc,incongruent,fact_check,Context,7446,7162,80,7162,1,3,0,0,0,1,5674,2,11512
16_2,18_inc,incongruent,fact_check,Target,1493,424,648,1152,0,0,1,1,0,1,5674,2,11512
16_2,18_inc,incongruent,fact_check,Spillover,1558,268,1290,1651,0,0,1,1,0,1,5674,2,11512
16_2,18_inc,incongruent,fact_check,Coda,1015,1015,,1547,0,0,1,1,0,1,5674,2,11512
17_1,1_inc,incongruent,fact_check,Context,11985,7928,2509,7928,1,3,0,0,1,0,7419,UNDEFINED,19561
17_1,1_inc,incongruent,fact_check,Target,3091,103,2282,4894,1,2,0,0,1,0,7419,UNDEFINED,19561
17_1,1_inc,incongruent,fact_check,Spillover,2124,81,134,15536,0,0,1,2,0,0,7419,UNDEFINED,19561
17_1,1_inc,incongruent,fact_check,Coda,2217,1954,263,3881,0,0,1,2,0,0,7419,UNDEFINED,19561
17_1,3_inc,incongruent,fact_check,Context,18461,7635,161,7635,1,5,0,0,0,1,4974,1,26216
17_1,3_inc,incongruent,fact_check,Target,3456,122,1829,2373,0,0,0,0,1,1,4974,1,26216
17_1,3_inc,incongruent,fact_check,Spillover,1995,97,84,15460,0,0,1,3,0,1,4974,1,26216
17_1,3_inc,incongruent,fact_check,Coda,2129,2129,,2946,0,0,1,1,0,1,4974,1,26216
17_1,9_inc,incongruent,fact_check,Context,10635,6885,3506,6885,1,2,0,0,0,0,8097,1,16489
17_1,9_inc,incongruent,fact_check,Target,1823,129,1694,5329,0,0,1,1,0,0,8097,1,16489
17_1,9_inc,incongruent,fact_check,Spillover,1845,1845,,1845,0,0,0,0,0,0,8097,1,16489
17_1,9_inc,incongruent,fact_check,Coda,2059,2059,,2303,0,0,1,1,0,0,8097,1,16489
17_1,5_inc,incongruent,fact_check,Context,8598,8598,,8598,0,0,0,0,0,1,9580,1,15358
17_1,5_inc,incongruent,fact_check,Target,1516,1516,,1516,0,0,0,0,0,1,9580,1,15358
17_1,5_inc,incongruent,fact_check,Spillover,2919,2238,681,2238,1,1,0,0,0,1,9580,1,15358
17_1,5_inc,incongruent,fact_check,Coda,2185,2009,80,2866,0,0,1,1,0,1,9580,1,15358
17_1,8_cong,congruent,fact_check,Context,26726,8459,8793,8459,1,3,0,0,0,0,17938,1,37595
17_1,8_cong,congruent,fact_check,Target,3131,111,1370,10274,1,1,1,1,0,0,17938,1,37595
17_1,8_cong,congruent,fact_check,Spillover,4030,2305,465,2305,0,0,0,0,0,0,17938,1,37595
17_1,8_cong,congruent,fact_check,Coda,3708,1609,2099,16557,0,0,1,2,0,0,17938,1,37595
17_1,7_inc,incongruent,fact_check,Context,10414,8212,520,8212,1,2,0,0,0,1,10409,1,18394
17_1,7_inc,incongruent,fact_check,Target,2896,1540,464,1540,1,2,0,0,1,1,10409,1,18394
17_1,7_inc,incongruent,fact_check,Spillover,2460,196,1085,6012,0,0,1,2,0,1,10409,1,18394
17_1,7_inc,incongruent,fact_check,Coda,2624,112,2512,4170,0,0,1,1,0,1,10409,1,18394
17_1,2_cong,congruent,fact_check,Context,10276,10276,,10276,0,0,0,0,0,0,28667,1,16362
17_1,2_cong,congruent,fact_check,Target,2425,1365,1060,1365,1,1,0,0,0,0,28667,1,16362
17_1,2_cong,congruent,fact_check,Spillover,1529,1529,,1529,0,0,0,0,0,0,28667,1,16362
17_1,2_cong,congruent,fact_check,Coda,2132,2132,,3192,0,0,1,1,0,0,28667,1,16362
17_1,4_cong,congruent,fact_check,Context,8633,8633,,8633,0,0,0,0,0,0,10964,1,14786
17_1,4_cong,congruent,fact_check,Target,2968,2503,465,2503,1,1,0,0,0,0,10964,1,14786
17_1,4_cong,congruent,fact_check,Spillover,1590,1590,,1590,0,0,0,0,0,0,10964,1,14786
17_1,4_cong,congruent,fact_check,Coda,1595,1595,,2060,0,0,1,1,0,0,10964,1,14786
17_1,6_cong,congruent,fact_check,Context,10042,9757,285,9757,1,1,0,0,0,1,5558,1,15667
17_1,6_cong,congruent,fact_check,Target,1319,1319,,1319,0,0,0,0,0,1,5558,1,15667
17_1,6_cong,congruent,fact_check,Spillover,1794,1794,,1794,0,0,0,0,0,1,5558,1,15667
17_1,6_cong,congruent,fact_check,Coda,2512,2512,,2797,0,0,1,1,0,1,5558,1,15667
17_1,10_cong,congruent,fact_check,Context,10890,10144,746,10144,1,1,0,0,0,1,5684,1,16473
17_1,10_cong,congruent,fact_check,Target,1521,1521,,1521,0,0,0,0,0,1,5684,1,16473
17_1,10_cong,congruent,fact_check,Spillover,2026,2026,,2026,0,0,0,0,0,1,5684,1,16473
17_1,10_cong,congruent,fact_check,Coda,2036,2036,,2782,0,0,1,1,0,1,5684,1,16473
17_1,15_inc,incongruent,entertainment,Context,9926,9029,897,9029,1,1,0,0,0,1,6791,2,16184
17_1,15_inc,incongruent,entertainment,Target,1859,1859,,1859,0,0,0,0,0,1,6791,2,16184
17_1,15_inc,incongruent,entertainment,Spillover,2182,2049,133,2049,1,1,0,0,0,1,6791,2,16184
17_1,15_inc,incongruent,entertainment,Coda,2217,2217,,3247,0,0,1,1,0,1,6791,2,16184
17_1,13_inc,incongruent,entertainment,Context,18738,13508,579,13508,1,2,0,0,0,1,4708,2,27550
17_1,13_inc,incongruent,entertainment,Target,5191,3703,658,10421,0,0,1,2,0,1,4708,2,27550
17_1,13_inc,incongruent,entertainment,Spillover,1731,1731,,1731,0,0,0,0,0,1,4708,2,27550
17_1,13_inc,incongruent,entertainment,Coda,1890,1890,,1890,0,0,0,0,0,1,4708,2,27550
17_1,19_inc,incongruent,entertainment,Context,10055,10055,,10055,0,0,0,0,0,0,9284,2,14439
17_1,19_inc,incongruent,entertainment,Target,1037,1037,,1037,0,0,0,0,0,0,9284,2,14439
17_1,19_inc,incongruent,entertainment,Spillover,1918,1918,,1918,0,0,0,0,0,0,9284,2,14439
17_1,19_inc,incongruent,entertainment,Coda,1429,1429,,1429,0,0,0,0,0,0,9284,2,14439
17_1,14_cong,congruent,entertainment,Context,8527,7704,823,7704,1,1,0,0,0,1,5193,2,14496
17_1,14_cong,congruent,entertainment,Target,1312,1202,110,1202,0,0,0,0,0,1,5193,2,14496
17_1,14_cong,congruent,entertainment,Spillover,1687,1687,,1687,0,0,0,0,0,1,5193,2,14496
17_1,14_cong,congruent,entertainment,Coda,2970,2970,,3903,0,0,1,1,0,1,5193,2,14496
17_1,12_cong,congruent,entertainment,Context,10335,8731,1604,8731,0,0,0,0,0,0,21225,2,16949
17_1,12_cong,congruent,entertainment,Target,2160,2024,136,2024,1,1,0,0,1,0,21225,2,16949
17_1,12_cong,congruent,entertainment,Spillover,1986,109,1877,4010,0,0,1,1,0,0,21225,2,16949
17_1,12_cong,congruent,entertainment,Coda,2260,2260,,4000,0,0,0,0,0,0,21225,2,16949
17_1,18_cong,congruent,entertainment,Context,10378,10220,158,10220,1,1,0,0,0,1,4975,2,16543
17_1,18_cong,congruent,entertainment,Target,1638,1638,,1638,0,0,0,0,0,1,4975,2,16543
17_1,18_cong,congruent,entertainment,Spillover,1682,1682,,1682,0,0,0,0,0,1,4975,2,16543
17_1,18_cong,congruent,entertainment,Coda,2845,2845,,3003,0,0,1,1,0,1,4975,2,16543
17_1,11_inc,incongruent,entertainment,Context,17207,3282,13782,17064,1,1,0,0,0,1,3367,2,26338
17_1,11_inc,incongruent,entertainment,Target,4627,3279,310,3279,1,1,0,0,0,1,3367,2,26338
17_1,11_inc,incongruent,entertainment,Spillover,2256,136,196,3420,1,1,1,2,0,1,3367,2,26338
